Time,header.seq,header.stamp.secs,header.stamp.nsecs,header.frame_id,orientation.x,orientation.y,orientation.z,orientation.w,orientation_covariance_0,orientation_covariance_1,orientation_covariance_2,orientation_covariance_3,orientation_covariance_4,orientation_covariance_5,orientation_covariance_6,orientation_covariance_7,orientation_covariance_8,angular_velocity.x,angular_velocity.y,angular_velocity.z,angular_velocity_covariance_0,angular_velocity_covariance_1,angular_velocity_covariance_2,angular_velocity_covariance_3,angular_velocity_covariance_4,angular_velocity_covariance_5,angular_velocity_covariance_6,angular_velocity_covariance_7,angular_velocity_covariance_8,linear_acceleration.x,linear_acceleration.y,linear_acceleration.z,linear_acceleration_covariance_0,linear_acceleration_covariance_1,linear_acceleration_covariance_2,linear_acceleration_covariance_3,linear_acceleration_covariance_4,linear_acceleration_covariance_5,linear_acceleration_covariance_6,linear_acceleration_covariance_7,linear_acceleration_covariance_8
1700026355.9443936,38595,1700026355,924776704,gx5_link,0.6827961802482605,0.09544554352760315,0.18120233714580536,0.7013168334960938,0.01,0.0,0.0,0.0,0.01,0.0,0.0,0.0,0.01,-0.01513304840773344,0.007193590048700571,0.05753353238105774,0.01,0.0,0.0,0.0,0.01,0.0,0.0,0.0,0.01,-1.0472446151316166,-9.466128589856623,-0.5575876689990982,0.01,0.0,0.0,0.0,0.01,0.0,0.0,0.0,0.01
1700026355.9544227,38596,1700026355,934795264,gx5_link,0.6827701926231384,0.0952966958284378,0.18133467435836792,0.7013280987739563,0.01,0.0,0.0,0.0,0.01,0.0,0.0,0.0,0.01,-0.01064551156014204,0.006907017435878515,0.04305611178278923,0.01,0.0,0.0,0.0,0.01,0.0,0.0,0.0,0.01,-0.9704966718200594,-9.371048505714535,-0.5140805722385645,0.01,0.0,0.0,0.0,0.01,0.0,0.0,0.0,0.01
1700026355.9626768,38597,1700026355,944810752,gx5_link,0.6827540993690491,0.09514332562685013,0.1813671737909317,0.7013561725616455,0.01,0.0,0.0,0.0,0.01,0.0,0.0,0.0,0.01,-0.006016527768224478,-0.004040557891130447,0.0317552424967289,0.01,0.0,0.0,0.0,0.01,0.0,0.0,0.0,0.01,-0.9625660249512642,-9.395980117875338,-0.607038805388473,0.01,0.0,0.0,0.0,0.01,0.0,0.0,0.0,0.01
1700026355.9742603,38598,1700026355,954829312,gx5_link,0.6827549338340759,0.09491479396820068,0.18126808106899261,0.7014120221138,0.01,0.0,0.0,0.0,0.01,0.0,0.0,0.0,0.01,-0.006576767656952143,-0.0305958054959774,0.022292889654636383,0.01,0.0,0.0,0.0,0.01,0.0,0.0,0.0,0.01,-0.9615025604382157,-9.413006071478128,-0.6769063780691474,0.01,0.0,0.0,0.0,0.01,0.0,0.0,0.0,0.01
1700026355.9863095,38599,1700026355,964849152,gx5_link,0.6827726364135742,0.09459516406059265,0.18105298280715942,0.7014935612678528,0.01,0.0,0.0,0.0,0.01,0.0,0.0,0.0,0.01,-0.00735210906714201,-0.060525912791490555,0.01648501306772232,0.01,0.0,0.0,0.0,0.01,0.0,0.0,0.0,0.01,-0.973384867542237,-9.412713226011395,-0.6950757295534015,0.01,0.0,0.0,0.0,0.01,0.0,0.0,0.0,0.01
1700026355.9967387,38600,1700026355,974869504,gx5_link,0.6828168034553528,0.09413471817970276,0.18074913322925568,0.7015907764434814,0.01,0.0,0.0,0.0,0.01,0.0,0.0,0.0,0.01,-0.007129273843020201,-0.09388713538646698,0.021393727511167526,0.01,0.0,0.0,0.0,0.01,0.0,0.0,0.0,0.01,-1.0193626287326216,-9.472968080487847,-0.7005917895611375,0.01,0.0,0.0,0.0,0.01,0.0,0.0,0.0,0.01
1700026356.003479,38601,1700026355,984886784,gx5_link,0.6829249262809753,0.09348435699939728,0.18043722212314606,0.7016527652740479,0.01,0.0,0.0,0.0,0.01,0.0,0.0,0.0,0.01,-0.002787089440971613,-0.12443767488002777,0.04324192926287651,0.01,0.0,0.0,0.0,0.01,0.0,0.0,0.0,0.01,-1.0981618785507976,-9.496768642792105,-0.6993956385791301,0.01,0.0,0.0,0.0,0.01,0.0,0.0,0.0,0.01
1700026356.0154593,38602,1700026355,994906112,gx5_link,0.6831007599830627,0.09271146357059479,0.18010172247886658,0.7016704082489014,0.01,0.0,0.0,0.0,0.01,0.0,0.0,0.0,0.01,0.005819873884320259,-0.1477227509021759,0.054334912449121475,0.01,0.0,0.0,0.0,0.01,0.0,0.0,0.0,0.01,-1.177037481540814,-9.362353742605448,-0.6175313021019101,0.01,0.0,0.0,0.0,0.01,0.0,0.0,0.0,0.01
1700026356.0237262,38603,1700026356,4922368,gx5_link,0.6833398342132568,0.09194298833608627,0.17971853911876678,0.7016369700431824,0.01,0.0,0.0,0.0,0.01,0.0,0.0,0.0,0.01,0.015295385383069515,-0.15813592076301575,0.049886178225278854,0.01,0.0,0.0,0.0,0.01,0.0,0.0,0.0,0.01,-1.2740152890630065,-9.2967768163234,-0.42710207108538595,0.01,0.0,0.0,0.0,0.01,0.0,0.0,0.0,0.01
1700026356.0349815,38604,1700026356,14939136,gx5_link,0.6835830807685852,0.09130403399467468,0.17931246757507324,0.701587438583374,0.01,0.0,0.0,0.0,0.01,0.0,0.0,0.0,0.01,0.018979214131832123,-0.14719714224338531,0.02953001856803894,0.01,0.0,0.0,0.0,0.01,0.0,0.0,0.0,0.01,-1.343246500068903,-9.27377938709557,-0.3072272625025362,0.01,0.0,0.0,0.0,0.01,0.0,0.0,0.0,0.01
1700026356.0438004,38605,1700026356,24957440,gx5_link,0.683800220489502,0.09084010124206543,0.1788891702890396,0.7015441060066223,0.01,0.0,0.0,0.0,0.01,0.0,0.0,0.0,0.01,0.01823532208800316,-0.12673531472682953,0.0024653756991028786,0.01,0.0,0.0,0.0,0.01,0.0,0.0,0.0,0.01,-1.396312173693627,-9.30904593078792,-0.2076977246709168,0.01,0.0,0.0,0.0,0.01,0.0,0.0,0.0,0.01
1700026356.0518105,38606,1700026356,34972416,gx5_link,0.6839803457260132,0.09060061722993851,0.17850467562675476,0.7014974355697632,0.01,0.0,0.0,0.0,0.01,0.0,0.0,0.0,0.01,0.016793478280305862,-0.09336268156766891,-0.02182011678814888,0.01,0.0,0.0,0.0,0.01,0.0,0.0,0.0,0.01,-1.395874074537307,-9.39661081699431,-0.10252855525081976,0.01,0.0,0.0,0.0,0.01,0.0,0.0,0.0,0.01
1700026356.0644648,38607,1700026356,44990720,gx5_link,0.6841016411781311,0.0905444473028183,0.17820417881011963,0.7014627456665039,0.01,0.0,0.0,0.0,0.01,0.0,0.0,0.0,0.01,0.015192755497992039,-0.05561775341629982,-0.03727791830897331,0.01,0.0,0.0,0.0,0.01,0.0,0.0,0.0,0.01,-1.3816836366213858,-9.474782436433435,-0.15039394768555647,0.01,0.0,0.0,0.0,0.01,0.0,0.0,0.0,0.01
1700026356.0758667,38608,1700026356,55010560,gx5_link,0.6842072010040283,0.09061823040246964,0.17797519266605377,0.701408326625824,0.01,0.0,0.0,0.0,0.01,0.0,0.0,0.0,0.01,0.022355539724230766,-0.025112278759479523,-0.04304550215601921,0.01,0.0,0.0,0.0,0.01,0.0,0.0,0.0,0.01,-1.339577017775923,-9.601171851074694,-0.23288250787518916,0.01,0.0,0.0,0.0,0.01,0.0,0.0,0.0,0.01
1700026356.0828147,38609,1700026356,65026560,gx5_link,0.6843199729919434,0.09073852002620697,0.17783689498901367,0.7013179063796997,0.01,0.0,0.0,0.0,0.01,0.0,0.0,0.0,0.01,0.032135315239429474,-0.003250159788876772,-0.03485436737537384,0.01,0.0,0.0,0.0,0.01,0.0,0.0,0.0,0.01,-1.3003972461625932,-9.7654692638278,-0.4026189333444461,0.01,0.0,0.0,0.0,0.01,0.0,0.0,0.0,0.01
1700026356.1002269,38610,1700026356,75049984,gx5_link,0.6844057440757751,0.09080329537391663,0.17774902284145355,0.7012481689453125,0.01,0.0,0.0,0.0,0.01,0.0,0.0,0.0,0.01,0.03309665247797966,0.0017722505144774914,-0.0223253071308136,0.01,0.0,0.0,0.0,0.01,0.0,0.0,0.0,0.01,-1.2611875178024172,-9.840150118541716,-0.6255767344567924,0.01,0.0,0.0,0.0,0.01,0.0,0.0,0.0,0.01
1700026356.1053648,38611,1700026356,85068800,gx5_link,0.6844863295555115,0.09077469259500504,0.17763282358646393,0.7012025117874146,0.01,0.0,0.0,0.0,0.01,0.0,0.0,0.0,0.01,0.02913195826113224,-0.012137840501964092,-0.01309390738606453,0.01,0.0,0.0,0.0,0.01,0.0,0.0,0.0,0.01,-1.2410275039575993,-9.890191037517786,-0.7028595152974129,0.01,0.0,0.0,0.0,0.01,0.0,0.0,0.0,0.01
1700026356.115215,38612,1700026356,95083520,gx5_link,0.6845607757568359,0.09067721664905548,0.17746807634830475,0.7011842727661133,0.01,0.0,0.0,0.0,0.01,0.0,0.0,0.0,0.01,0.01942763850092888,-0.028725603595376015,-0.01028185524046421,0.01,0.0,0.0,0.0,0.01,0.0,0.0,0.0,0.01,-1.2260538067094982,-9.91228596494794,-0.6207647310651838,0.01,0.0,0.0,0.0,0.01,0.0,0.0,0.0,0.01
1700026356.130558,38613,1700026356,105101312,gx5_link,0.6846168637275696,0.09054730832576752,0.1772661954164505,0.7011973261833191,0.01,0.0,0.0,0.0,0.01,0.0,0.0,0.0,0.01,0.008729635737836361,-0.04014222323894501,-0.012113014236092567,0.01,0.0,0.0,0.0,0.01,0.0,0.0,0.0,0.01,-1.2180852389831096,-9.898819749653338,-0.5373437762631104,0.01,0.0,0.0,0.0,0.01,0.0,0.0,0.0,0.01
1700026356.1405466,38614,1700026356,118118144,gx5_link,0.6846469640731812,0.0903717577457428,0.17705953121185303,0.7012428641319275,0.01,0.0,0.0,0.0,0.01,0.0,0.0,0.0,0.01,-0.0017032099422067404,-0.04974287003278732,-0.009872715920209885,0.01,0.0,0.0,0.0,0.01,0.0,0.0,0.0,0.01,-1.267045888441801,-9.904558585566281,-0.4690870363125577,0.01,0.0,0.0,0.0,0.01,0.0,0.0,0.0,0.01
1700026356.1559553,38615,1700026356,128136960,gx5_link,0.6846964359283447,0.09011071920394897,0.17685367166996002,0.7012799978256226,0.01,0.0,0.0,0.0,0.01,0.0,0.0,0.0,0.01,-0.005620928946882486,-0.060746293514966965,-0.0008954041404649615,0.01,0.0,0.0,0.0,0.01,0.0,0.0,0.0,0.01,-1.3365823660045861,-9.913850145524739,-0.38128516301251947,0.01,0.0,0.0,0.0,0.01,0.0,0.0,0.0,0.01
1700026356.1560454,38616,1700026356,138151936,gx5_link,0.6847506761550903,0.08983201533555984,0.17667728662490845,0.7013073563575745,0.01,0.0,0.0,0.0,0.01,0.0,0.0,0.0,0.01,-0.010327004827558994,-0.06073238328099251,0.004811722319573164,0.01,0.0,0.0,0.0,0.01,0.0,0.0,0.0,0.01,-1.3908816730774938,-9.873407075977324,-0.2395651091779582,0.01,0.0,0.0,0.0,0.01,0.0,0.0,0.0,0.01
1700026356.1654513,38617,1700026356,148168448,gx5_link,0.6847845315933228,0.08960504084825516,0.17655682563781738,0.7013335824012756,0.01,0.0,0.0,0.0,0.01,0.0,0.0,0.0,0.01,-0.01628568395972252,-0.04883337765932083,0.0017826390685513616,0.01,0.0,0.0,0.0,0.01,0.0,0.0,0.0,0.01,-1.4566316178388892,-9.80172598760128,-0.10467040785141289,0.01,0.0,0.0,0.0,0.01,0.0,0.0,0.0,0.01
1700026356.1831849,38618,1700026356,158192128,gx5_link,0.6848012804985046,0.08949132263660431,0.17648518085479736,0.7013497948646545,0.01,0.0,0.0,0.0,0.01,0.0,0.0,0.0,0.01,-0.017778249457478523,-0.027335921302437782,-0.005910907872021198,0.01,0.0,0.0,0.0,0.01,0.0,0.0,0.0,0.01,-1.5047564740605652,-9.82268694256544,0.005057149246361223,0.01,0.0,0.0,0.0,0.01,0.0,0.0,0.0,0.01
1700026356.185606,38619,1700026356,168206592,gx5_link,0.6847824454307556,0.08949317038059235,0.17652274668216705,0.701358437538147,0.01,0.0,0.0,0.0,0.01,0.0,0.0,0.0,0.01,-0.01765635423362255,0.0011247324291616678,-0.008902914822101593,0.01,0.0,0.0,0.0,0.01,0.0,0.0,0.0,0.01,-1.571122358763218,-9.89171079443097,-0.09968845472037792,0.01,0.0,0.0,0.0,0.01,0.0,0.0,0.0,0.01
1700026356.1950774,38620,1700026356,178222592,gx5_link,0.6847027540206909,0.08953330665826797,0.17658282816410065,0.701416015625,0.01,0.0,0.0,0.0,0.01,0.0,0.0,0.0,0.01,-0.022911928594112396,0.015108829364180565,-0.014963589608669281,0.01,0.0,0.0,0.0,0.01,0.0,0.0,0.0,0.01,-1.607531788880378,-9.922453138697147,-0.27982577136317266,0.01,0.0,0.0,0.0,0.01,0.0,0.0,0.0,0.01
1700026356.2158797,38621,1700026356,188240896,gx5_link,0.6845797896385193,0.08958054333925247,0.17665469646453857,0.7015119194984436,0.01,0.0,0.0,0.0,0.01,0.0,0.0,0.0,0.01,-0.03122328780591488,0.02149098739027977,-0.01557556539773941,0.01,0.0,0.0,0.0,0.01,0.0,0.0,0.0,0.01,-1.5934524101234973,-9.951868618273734,-0.35477767983712255,0.01,0.0,0.0,0.0,0.01,0.0,0.0,0.0,0.01
1700026356.2159195,38622,1700026356,198254592,gx5_link,0.6844301223754883,0.0896645113825798,0.17676308751106262,0.7016199231147766,0.01,0.0,0.0,0.0,0.01,0.0,0.0,0.0,0.01,-0.0361112579703331,0.03261016309261322,-0.01446547731757164,0.01,0.0,0.0,0.0,0.01,0.0,0.0,0.0,0.01,-1.5265746303759515,-9.918334597462415,-0.39069947256781157,0.01,0.0,0.0,0.0,0.01,0.0,0.0,0.0,0.01
1700026356.2250638,38623,1700026356,208269568,gx5_link,0.684244692325592,0.08979598432779312,0.17688557505607605,0.7017531394958496,0.01,0.0,0.0,0.0,0.01,0.0,0.0,0.0,0.01,-0.04001346230506897,0.042557813227176666,-0.01702549308538437,0.01,0.0,0.0,0.0,0.01,0.0,0.0,0.0,0.01,-1.4372114625759422,-9.859069923067093,-0.4409059208365157,0.01,0.0,0.0,0.0,0.01,0.0,0.0,0.0,0.01
1700026356.2361279,38624,1700026356,218286592,gx5_link,0.6840401887893677,0.08994022011756897,0.1769685596227646,0.701913058757782,0.01,0.0,0.0,0.0,0.01,0.0,0.0,0.0,0.01,-0.04386008158326149,0.041811998933553696,-0.022259488701820374,0.01,0.0,0.0,0.0,0.01,0.0,0.0,0.0,0.01,-1.3627112251259386,-9.829069921600817,-0.514466831609793,0.01,0.0,0.0,0.0,0.01,0.0,0.0,0.0,0.01
1700026356.2454808,38625,1700026356,228300544,gx5_link,0.6838415861129761,0.09007038921117783,0.17700524628162384,0.7020806074142456,0.01,0.0,0.0,0.0,0.01,0.0,0.0,0.0,0.01,-0.04136672243475914,0.03549298271536827,-0.02580059878528118,0.01,0.0,0.0,0.0,0.01,0.0,0.0,0.0,0.01,-1.2903640740565956,-9.789642166575788,-0.5900057644577696,0.01,0.0,0.0,0.0,0.01,0.0,0.0,0.0,0.01
1700026356.2555704,38626,1700026356,238316288,gx5_link,0.6836554408073425,0.09020683914422989,0.17696191370487213,0.7022552490234375,0.01,0.0,0.0,0.0,0.01,0.0,0.0,0.0,0.01,-0.03971245884895325,0.02591560035943985,-0.03512685000896454,0.01,0.0,0.0,0.0,0.01,0.0,0.0,0.0,0.01,-1.2427480441398917,-9.780620071208476,-0.6204398099597543,0.01,0.0,0.0,0.0,0.01,0.0,0.0,0.0,0.01
1700026356.2728615,38627,1700026356,248340224,gx5_link,0.6834735870361328,0.09035468101501465,0.17686523497104645,0.7024375796318054,0.01,0.0,0.0,0.0,0.01,0.0,0.0,0.0,0.01,-0.03883141651749611,0.020896561443805695,-0.044520288705825806,0.01,0.0,0.0,0.0,0.01,0.0,0.0,0.0,0.01,-1.1903826277390122,-9.765518948188424,-0.6069884634407237,0.01,0.0,0.0,0.0,0.01,0.0,0.0,0.0,0.01
1700026356.2737346,38628,1700026356,258354432,gx5_link,0.6832681894302368,0.09055131673812866,0.17674991488456726,0.7026411890983582,0.01,0.0,0.0,0.0,0.01,0.0,0.0,0.0,0.01,-0.043597154319286346,0.022564329206943512,-0.05188192054629326,0.01,0.0,0.0,0.0,0.01,0.0,0.0,0.0,0.01,-1.1492044488500803,-9.762194772201775,-0.5726510538246482,0.01,0.0,0.0,0.0,0.01,0.0,0.0,0.0,0.01
1700026356.284943,38629,1700026356,268370432,gx5_link,0.6830333471298218,0.09077589213848114,0.17664262652397156,0.7028673887252808,0.01,0.0,0.0,0.0,0.01,0.0,0.0,0.0,0.01,-0.048850543797016144,0.02742314152419567,-0.055861975997686386,0.01,0.0,0.0,0.0,0.01,0.0,0.0,0.0,0.01,-1.1252174971282483,-9.759628721106052,-0.5957872339360416,0.01,0.0,0.0,0.0,0.01,0.0,0.0,0.0,0.01
1700026356.297358,38630,1700026356,278388224,gx5_link,0.6828000545501709,0.09098555892705917,0.17656086385250092,0.7030874490737915,0.01,0.0,0.0,0.0,0.01,0.0,0.0,0.0,0.01,-0.04738878086209297,0.030343182384967804,-0.05063701048493385,0.01,0.0,0.0,0.0,0.01,0.0,0.0,0.0,0.01,-1.106210818037018,-9.780485631173848,-0.6332306832760572,0.01,0.0,0.0,0.0,0.01,0.0,0.0,0.0,0.01
1700026356.3052733,38631,1700026356,288402944,gx5_link,0.6825974583625793,0.09113235026597977,0.1765230894088745,0.703274667263031,0.01,0.0,0.0,0.0,0.01,0.0,0.0,0.0,0.01,-0.04196467250585556,0.02854878082871437,-0.035673290491104126,0.01,0.0,0.0,0.0,0.01,0.0,0.0,0.0,0.01,-1.1013772604007273,-9.813014274334908,-0.6387384869121014,0.01,0.0,0.0,0.0,0.01,0.0,0.0,0.0,0.01
1700026356.3149092,38632,1700026356,298417920,gx5_link,0.682443380355835,0.09121131896972656,0.17653648555278778,0.7034105658531189,0.01,0.0,0.0,0.0,0.01,0.0,0.0,0.0,0.01,-0.035693343728780746,0.02477603778243065,-0.017915088683366776,0.01,0.0,0.0,0.0,0.01,0.0,0.0,0.0,0.01,-1.0710573793303222,-9.76384487749636,-0.5944094793094322,0.01,0.0,0.0,0.0,0.01,0.0,0.0,0.0,0.01
1700026356.3264303,38633,1700026356,308434944,gx5_link,0.682295024394989,0.09127145260572433,0.17660248279571533,0.7035301923751831,0.01,0.0,0.0,0.0,0.01,0.0,0.0,0.0,0.01,-0.03456614911556244,0.027685929089784622,-0.005800378508865833,0.01,0.0,0.0,0.0,0.01,0.0,0.0,0.0,0.01,-1.042532418852672,-9.698128835004567,-0.5405803835641593,0.01,0.0,0.0,0.0,0.01,0.0,0.0,0.0,0.01
1700026356.3332667,38634,1700026356,318448640,gx5_link,0.6821271777153015,0.09134167432785034,0.17667824029922485,0.7036647200584412,0.01,0.0,0.0,0.0,0.01,0.0,0.0,0.0,0.01,-0.04036824777722359,0.030853386968374252,-0.005280811805278063,0.01,0.0,0.0,0.0,0.01,0.0,0.0,0.0,0.01,-1.013463049300015,-9.622838908481597,-0.5011417783515527,0.01,0.0,0.0,0.0,0.01,0.0,0.0,0.0,0.01
1700026356.3451307,38635,1700026356,328464128,gx5_link,0.6819323301315308,0.09144240617752075,0.1767747849225998,0.703816294670105,0.01,0.0,0.0,0.0,0.01,0.0,0.0,0.0,0.01,-0.046030838042497635,0.03758028894662857,-0.005009077489376068,0.01,0.0,0.0,0.0,0.01,0.0,0.0,0.0,0.01,-1.0108202066410332,-9.629289107534289,-0.468318426560238,0.01,0.0,0.0,0.0,0.01,0.0,0.0,0.0,0.01
1700026356.3638072,38636,1700026356,338486784,gx5_link,0.6817253232002258,0.09155081957578659,0.17689171433448792,0.7039733529090881,0.01,0.0,0.0,0.0,0.01,0.0,0.0,0.0,0.01,-0.04757167771458626,0.042303066700696945,-0.004166574217379093,0.01,0.0,0.0,0.0,0.01,0.0,0.0,0.0,0.01,-0.9972202088989317,-9.604901100730896,-0.48048017166014756,0.01,0.0,0.0,0.0,0.01,0.0,0.0,0.0,0.01
1700026356.373784,38637,1700026356,348500224,gx5_link,0.6815135478973389,0.0916813388466835,0.1770278662443161,0.7041271328926086,0.01,0.0,0.0,0.0,0.01,0.0,0.0,0.0,0.01,-0.04712856933474541,0.04756103828549385,-0.005158994346857071,0.01,0.0,0.0,0.0,0.01,0.0,0.0,0.0,0.01,-1.0129830106981097,-9.600029695302247,-0.5278226087998599,0.01,0.0,0.0,0.0,0.01,0.0,0.0,0.0,0.01
1700026356.3776345,38638,1700026356,358515200,gx5_link,0.6813267469406128,0.09182347357273102,0.1771390289068222,0.7042614817619324,0.01,0.0,0.0,0.0,0.01,0.0,0.0,0.0,0.01,-0.04011418670415878,0.04689601808786392,-0.009232654236257076,0.01,0.0,0.0,0.0,0.01,0.0,0.0,0.0,0.01,-1.0227163961399346,-9.574728080785274,-0.5338669669980183,0.01,0.0,0.0,0.0,0.01,0.0,0.0,0.0,0.01
1700026356.387536,38639,1700026356,368531456,gx5_link,0.6811483502388,0.09201615303754807,0.17719702422618866,0.7043942213058472,0.01,0.0,0.0,0.0,0.01,0.0,0.0,0.0,0.01,-0.037285514175891876,0.047531213611364365,-0.02286347933113575,0.01,0.0,0.0,0.0,0.01,0.0,0.0,0.0,0.01,-1.0097830456130206,-9.555932194900512,-0.5300891654923557,0.01,0.0,0.0,0.0,0.01,0.0,0.0,0.0,0.01
1700026356.3981912,38640,1700026356,378546176,gx5_link,0.6809620261192322,0.09227525442838669,0.17719736695289612,0.7045404314994812,0.01,0.0,0.0,0.0,0.01,0.0,0.0,0.0,0.01,-0.036516789346933365,0.049084920436143875,-0.03834586590528488,0.01,0.0,0.0,0.0,0.01,0.0,0.0,0.0,0.01,-1.0004126482646911,-9.578325813016296,-0.5305153915477916,0.01,0.0,0.0,0.0,0.01,0.0,0.0,0.0,0.01
1700026356.4080377,38641,1700026356,388561152,gx5_link,0.680772066116333,0.09257879853248596,0.1771325021982193,0.7047004699707031,0.01,0.0,0.0,0.0,0.01,0.0,0.0,0.0,0.01,-0.03485076129436493,0.04493890702724457,-0.05296168103814125,0.01,0.0,0.0,0.0,0.01,0.0,0.0,0.0,0.01,-0.9864361453603953,-9.63618646583259,-0.5457981182124465,0.01,0.0,0.0,0.0,0.01,0.0,0.0,0.0,0.01
1700026356.418997,38642,1700026356,398579456,gx5_link,0.6806196570396423,0.09286265075206757,0.17700403928756714,0.7048425674438477,0.01,0.0,0.0,0.0,0.01,0.0,0.0,0.0,0.01,-0.027108043432235718,0.03419623151421547,-0.059926412999629974,0.01,0.0,0.0,0.0,0.01,0.0,0.0,0.0,0.01,-0.9745051037438214,-9.685893038287759,-0.5780022421268746,0.01,0.0,0.0,0.0,0.01,0.0,0.0,0.0,0.01
1700026356.427561,38643,1700026356,408594176,gx5_link,0.6805111169815063,0.09311245381832123,0.1767815351486206,0.7049702405929565,0.01,0.0,0.0,0.0,0.01,0.0,0.0,0.0,0.01,-0.01992039754986763,0.01709911599755287,-0.06700634956359863,0.01,0.0,0.0,0.0,0.01,0.0,0.0,0.0,0.01,-0.959007017295435,-9.71867594847083,-0.5997087182287126,0.01,0.0,0.0,0.0,0.01,0.0,0.0,0.0,0.01
1700026356.438026,38644,1700026356,418609920,gx5_link,0.680400550365448,0.09333223104476929,0.17645128071308136,0.7051305770874023,0.01,0.0,0.0,0.0,0.01,0.0,0.0,0.0,0.01,-0.022502046078443527,-0.002639635931700468,-0.0793033018708229,0.01,0.0,0.0,0.0,0.01,0.0,0.0,0.0,0.01,-0.9346547393925487,-9.704179221084713,-0.5612295326327905,0.01,0.0,0.0,0.0,0.01,0.0,0.0,0.0,0.01
1700026356.448006,38645,1700026356,428627712,gx5_link,0.6802610158920288,0.09354088455438614,0.1760035753250122,0.7053494453430176,0.01,0.0,0.0,0.0,0.01,0.0,0.0,0.0,0.01,-0.032353486865758896,-0.020918475463986397,-0.09380879253149033,0.01,0.0,0.0,0.0,0.01,0.0,0.0,0.0,0.01,-0.9283979440201073,-9.732468911501766,-0.5394550327960401,0.01,0.0,0.0,0.0,0.01,0.0,0.0,0.0,0.01
1700026356.4609063,38646,1700026356,438647808,gx5_link,0.6801112294197083,0.09373019635677338,0.1754867136478424,0.705597460269928,0.01,0.0,0.0,0.0,0.01,0.0,0.0,0.0,0.01,-0.03781832009553909,-0.0321272648870945,-0.10301805287599564,0.01,0.0,0.0,0.0,0.01,0.0,0.0,0.0,0.01,-0.91519797844626,-9.79820132060647,-0.5168230758797377,0.01,0.0,0.0,0.0,0.01,0.0,0.0,0.0,0.01
1700026356.4704728,38647,1700026356,448662528,gx5_link,0.6799591183662415,0.09388557076454163,0.17498239874839783,0.7058485746383667,0.01,0.0,0.0,0.0,0.01,0.0,0.0,0.0,0.01,-0.041475869715213776,-0.036486607044935226,-0.09774450212717056,0.01,0.0,0.0,0.0,0.01,0.0,0.0,0.0,0.01,-0.9123964380942284,-9.82986604041457,-0.4861309639634564,0.01,0.0,0.0,0.0,0.01,0.0,0.0,0.0,0.01
1700026356.4759963,38648,1700026356,458679040,gx5_link,0.6798146963119507,0.09402775764465332,0.17448703944683075,0.7060914039611816,0.01,0.0,0.0,0.0,0.01,0.0,0.0,0.0,0.01,-0.03964729607105255,-0.03832222893834114,-0.09556186199188232,0.01,0.0,0.0,0.0,0.01,0.0,0.0,0.0,0.01,-0.8971193009201437,-9.794063490149378,-0.5195038393963128,0.01,0.0,0.0,0.0,0.01,0.0,0.0,0.0,0.01
1700026356.4832575,38649,1700026356,468692736,gx5_link,0.6797002553939819,0.09413689374923706,0.17401300370693207,0.7063040137290955,0.01,0.0,0.0,0.0,0.01,0.0,0.0,0.0,0.01,-0.0315822996199131,-0.041167374700307846,-0.08713410794734955,0.01,0.0,0.0,0.0,0.01,0.0,0.0,0.0,0.01,-0.9047093907229602,-9.820459914165735,-0.579835777696967,0.01,0.0,0.0,0.0,0.01,0.0,0.0,0.0,0.01
1700026356.495238,38650,1700026356,478708224,gx5_link,0.6796191334724426,0.09417526423931122,0.17356690764427185,0.7064866423606873,0.01,0.0,0.0,0.0,0.01,0.0,0.0,0.0,0.01,-0.023679768666625023,-0.04682052507996559,-0.07481066137552261,0.01,0.0,0.0,0.0,0.01,0.0,0.0,0.0,0.01,-0.9284346227686852,-9.83428853303194,-0.6449972550459205,0.01,0.0,0.0,0.0,0.01,0.0,0.0,0.0,0.01
1700026356.5071635,38651,1700026356,488725248,gx5_link,0.6795886754989624,0.09415946155786514,0.1731255203485489,0.7066263556480408,0.01,0.0,0.0,0.0,0.01,0.0,0.0,0.0,0.01,-0.014282986521720886,-0.054675064980983734,-0.06472758203744888,0.01,0.0,0.0,0.0,0.01,0.0,0.0,0.0,0.01,-0.9363310751069337,-9.775620655485987,-0.614478344272077,0.01,0.0,0.0,0.0,0.01,0.0,0.0,0.0,0.01
1700026356.5142865,38652,1700026356,498738432,gx5_link,0.6795957684516907,0.09414054453372955,0.1726973056793213,0.7067268490791321,0.01,0.0,0.0,0.0,0.01,0.0,0.0,0.0,0.01,-0.00902987364679575,-0.05447741597890854,-0.05896315723657608,0.01,0.0,0.0,0.0,0.01,0.0,0.0,0.0,0.01,-0.9351745985481887,-9.771663442292809,-0.5132227863654494,0.01,0.0,0.0,0.0,0.01,0.0,0.0,0.0,0.01
1700026356.523903,38653,1700026356,508753152,gx5_link,0.6796044707298279,0.09410540014505386,0.17232894897460938,0.7068131566047668,0.01,0.0,0.0,0.0,0.01,0.0,0.0,0.0,0.01,-0.009144228883087635,-0.05007050931453705,-0.04900218918919563,0.01,0.0,0.0,0.0,0.01,0.0,0.0,0.0,0.01,-0.9343743150159716,-9.774051214212179,-0.46102998658511785,0.01,0.0,0.0,0.0,0.01,0.0,0.0,0.0,0.01
1700026356.5363367,38654,1700026356,518769664,gx5_link,0.679591178894043,0.09407758712768555,0.1720399409532547,0.7068999409675598,0.01,0.0,0.0,0.0,0.01,0.0,0.0,0.0,0.01,-0.012441141530871391,-0.0404539555311203,-0.0391259603202343,0.01,0.0,0.0,0.0,0.01,0.0,0.0,0.0,0.01,-0.9359127766296267,-9.766659350395201,-0.460947203672491,0.01,0.0,0.0,0.0,0.01,0.0,0.0,0.0,0.01
1700026356.551254,38655,1700026356,528789248,gx5_link,0.6795428991317749,0.09404566138982773,0.17180342972278595,0.7070081233978271,0.01,0.0,0.0,0.0,0.01,0.0,0.0,0.0,0.01,-0.019303569570183754,-0.0321047380566597,-0.033461395651102066,0.01,0.0,0.0,0.0,0.01,0.0,0.0,0.0,0.01,-0.9500258384604007,-9.750254743561149,-0.49500042605232447,0.01,0.0,0.0,0.0,0.01,0.0,0.0,0.0,0.01
1700026356.5555303,38656,1700026356,538804224,gx5_link,0.6794415712356567,0.09403125196695328,0.17158202826976776,0.7071611285209656,0.01,0.0,0.0,0.0,0.01,0.0,0.0,0.0,0.01,-0.03041255660355091,-0.026738472282886505,-0.03669103980064392,0.01,0.0,0.0,0.0,0.01,0.0,0.0,0.0,0.01,-0.9587132950458676,-9.682048637819289,-0.5267679121151566,0.01,0.0,0.0,0.0,0.01,0.0,0.0,0.0,0.01
1700026356.568102,38657,1700026356,548822016,gx5_link,0.6792877912521362,0.09405092149972916,0.17133069038391113,0.7073671817779541,0.01,0.0,0.0,0.0,0.01,0.0,0.0,0.0,0.01,-0.042790185660123825,-0.024962160736322403,-0.046097517013549805,0.01,0.0,0.0,0.0,0.01,0.0,0.0,0.0,0.01,-0.9548666295550763,-9.627771104186772,-0.5557908852428197,0.01,0.0,0.0,0.0,0.01,0.0,0.0,0.0,0.01
1700026356.5772798,38658,1700026356,558835712,gx5_link,0.6791229248046875,0.09407056123018265,0.17107458412647247,0.707584798336029,0.01,0.0,0.0,0.0,0.01,0.0,0.0,0.0,0.01,-0.04323470592498779,-0.02412179671227932,-0.04798327386379242,0.01,0.0,0.0,0.0,0.01,0.0,0.0,0.0,0.01,-0.9670875209636985,-9.669619364356993,-0.6513995233036577,0.01,0.0,0.0,0.0,0.01,0.0,0.0,0.0,0.01
1700026356.586743,38659,1700026356,568851200,gx5_link,0.6789720058441162,0.09403854608535767,0.17084762454032898,0.7077887058258057,0.01,0.0,0.0,0.0,0.01,0.0,0.0,0.0,0.01,-0.03970390558242798,-0.024748027324676514,-0.03727767616510391,0.01,0.0,0.0,0.0,0.01,0.0,0.0,0.0,0.01,-0.9817669845055789,-9.710050743466615,-0.7127875465285033,0.01,0.0,0.0,0.0,0.01,0.0,0.0,0.0,0.01
1700026356.5967736,38660,1700026356,578868480,gx5_link,0.6788676977157593,0.0939721018075943,0.170669823884964,0.7079405784606934,0.01,0.0,0.0,0.0,0.01,0.0,0.0,0.0,0.01,-0.03262215107679367,-0.02422538585960865,-0.025732703506946564,0.01,0.0,0.0,0.0,0.01,0.0,0.0,0.0,0.01,-0.9597036943227052,-9.661646485781668,-0.6522299827784299,0.01,0.0,0.0,0.0,0.01,0.0,0.0,0.0,0.01
1700026356.605471,38661,1700026356,588882688,gx5_link,0.6787871718406677,0.09390396624803543,0.17054051160812378,0.7080578804016113,0.01,0.0,0.0,0.0,0.01,0.0,0.0,0.0,0.01,-0.026727428659796715,-0.02048061043024063,-0.01668659970164299,0.01,0.0,0.0,0.0,0.01,0.0,0.0,0.0,0.01,-0.9350541139736771,-9.556672199612855,-0.6092911508925258,0.01,0.0,0.0,0.0,0.01,0.0,0.0,0.0,0.01
1700026356.6155176,38662,1700026356,598897664,gx5_link,0.6787295341491699,0.09389736503362656,0.17042359709739685,0.7081421613693237,0.01,0.0,0.0,0.0,0.01,0.0,0.0,0.0,0.01,-0.017834624275565147,-0.010943102650344372,-0.01784394681453705,0.01,0.0,0.0,0.0,0.01,0.0,0.0,0.0,0.01,-0.903340367392078,-9.471045003470778,-0.5658759701991454,0.01,0.0,0.0,0.0,0.01,0.0,0.0,0.0,0.01
1700026356.626696,38663,1700026356,608913920,gx5_link,0.6786929965019226,0.09396374970674515,0.17031757533550262,0.7081938982009888,0.01,0.0,0.0,0.0,0.01,0.0,0.0,0.0,0.01,-0.008513864129781723,-0.0006446557235904038,-0.023529162630438805,0.01,0.0,0.0,0.0,0.01,0.0,0.0,0.0,0.01,-0.8932052692815661,-9.473066864687203,-0.5912881324185059,0.01,0.0,0.0,0.0,0.01,0.0,0.0,0.0,0.01
1700026356.639703,38664,1700026356,618933248,gx5_link,0.6786729097366333,0.09404494613409042,0.17020271718502045,0.7082299590110779,0.01,0.0,0.0,0.0,0.01,0.0,0.0,0.0,0.01,0.0006566307274624705,0.0014719384489580989,-0.026118038222193718,0.01,0.0,0.0,0.0,0.01,0.0,0.0,0.0,0.01,-0.8674229585755616,-9.480894781833886,-0.6607011662647128,0.01,0.0,0.0,0.0,0.01,0.0,0.0,0.0,0.01
1700026356.6450565,38665,1700026356,628947968,gx5_link,0.6786864995956421,0.09414920210838318,0.17005524039268494,0.7082386016845703,0.01,0.0,0.0,0.0,0.01,0.0,0.0,0.0,0.01,0.010280421935021877,0.0022914751898497343,-0.02947661466896534,0.01,0.0,0.0,0.0,0.01,0.0,0.0,0.0,0.01,-0.8250891799107194,-9.487951714608073,-0.7206632483396679,0.01,0.0,0.0,0.0,0.01,0.0,0.0,0.0,0.01
1700026356.6570866,38666,1700026356,640962816,gx5_link,0.6787045001983643,0.09422949701547623,0.1698431819677353,0.7082615494728088,0.01,0.0,0.0,0.0,0.01,0.0,0.0,0.0,0.01,0.01550954207777977,-0.00803025346249342,-0.03574738651514053,0.01,0.0,0.0,0.0,0.01,0.0,0.0,0.0,0.01,-0.7892305155441165,-9.471608482572435,-0.8214644135423004,0.01,0.0,0.0,0.0,0.01,0.0,0.0,0.0,0.01
1700026356.6691167,38667,1700026356,650979840,gx5_link,0.6787549257278442,0.09427326917648315,0.16955091059207916,0.7082773447036743,0.01,0.0,0.0,0.0,0.01,0.0,0.0,0.0,0.01,0.022728582844138145,-0.023641638457775116,-0.039565008133649826,0.01,0.0,0.0,0.0,0.01,0.0,0.0,0.0,0.01,-0.7745786706615239,-9.493069788274168,-0.9016738224193453,0.01,0.0,0.0,0.0,0.01,0.0,0.0,0.0,0.01
1700026356.6762772,38668,1700026356,660992512,gx5_link,0.6788395643234253,0.09426535665988922,0.16916149854660034,0.7082903981208801,0.01,0.0,0.0,0.0,0.01,0.0,0.0,0.0,0.01,0.03034226782619953,-0.043404269963502884,-0.04691466689109802,0.01,0.0,0.0,0.0,0.01,0.0,0.0,0.0,0.01,-0.7527371334705502,-9.474237662032246,-0.9871289499301463,0.01,0.0,0.0,0.0,0.01,0.0,0.0,0.0,0.01
1700026356.687069,38669,1700026356,671006720,gx5_link,0.6789187788963318,0.09423591941595078,0.1686616986989975,0.7083376049995422,0.01,0.0,0.0,0.0,0.01,0.0,0.0,0.0,0.01,0.027998315170407295,-0.06446398794651031,-0.06023022532463074,0.01,0.0,0.0,0.0,0.01,0.0,0.0,0.0,0.01,-0.7612067825868726,-9.427692183956504,-1.0232289487719535,0.01,0.0,0.0,0.0,0.01,0.0,0.0,0.0,0.01
1700026356.6977057,38670,1700026356,681022720,gx5_link,0.6789928674697876,0.09419479966163635,0.16803798079490662,0.7084203362464905,0.01,0.0,0.0,0.0,0.01,0.0,0.0,0.0,0.01,0.02749495580792427,-0.08466028422117233,-0.07798872143030167,0.01,0.0,0.0,0.0,0.01,0.0,0.0,0.0,0.01,-0.8090648776311427,-9.40291196296513,-1.0009451477061957,0.01,0.0,0.0,0.0,0.01,0.0,0.0,0.0,0.01
1700026356.7077527,38671,1700026356,691037440,gx5_link,0.6791256070137024,0.09414792060852051,0.1673385500907898,0.7084648609161377,0.01,0.0,0.0,0.0,0.01,0.0,0.0,0.0,0.01,0.03357784450054169,-0.09643083065748215,-0.08876436203718185,0.01,0.0,0.0,0.0,0.01,0.0,0.0,0.0,0.01,-0.8618759189076721,-9.416886712303757,-0.8257637181714177,0.01,0.0,0.0,0.0,0.01,0.0,0.0,0.0,0.01
1700026356.723494,38672,1700026356,701058560,gx5_link,0.6793373227119446,0.09413951635360718,0.1667015701532364,0.7084131240844727,0.01,0.0,0.0,0.0,0.01,0.0,0.0,0.0,0.01,0.04938003048300743,-0.0881759524345398,-0.0831240862607956,0.01,0.0,0.0,0.0,0.01,0.0,0.0,0.0,0.01,-0.9098834323599934,-9.443114209493993,-0.6714853759337216,0.01,0.0,0.0,0.0,0.01,0.0,0.0,0.0,0.01
1700026356.7286975,38673,1700026356,711074816,gx5_link,0.6796169877052307,0.09415636211633682,0.16618990898132324,0.7082629203796387,0.01,0.0,0.0,0.0,0.01,0.0,0.0,0.0,0.01,0.07112617790699005,-0.07016454637050629,-0.0690823420882225,0.01,0.0,0.0,0.0,0.01,0.0,0.0,0.0,0.01,-0.9726526808101683,-9.497894431951641,-0.6487655946034938,0.01,0.0,0.0,0.0,0.01,0.0,0.0,0.0,0.01
1700026356.7365546,38674,1700026356,721088256,gx5_link,0.6799498200416565,0.09418422728776932,0.16580358147621155,0.7080302834510803,0.01,0.0,0.0,0.0,0.01,0.0,0.0,0.0,0.01,0.08654574304819107,-0.052919842302799225,-0.05184759572148323,0.01,0.0,0.0,0.0,0.01,0.0,0.0,0.0,0.01,-1.0066337878018616,-9.523233455869555,-0.6264519098561256,0.01,0.0,0.0,0.0,0.01,0.0,0.0,0.0,0.01
1700026356.758815,38675,1700026356,731103744,gx5_link,0.680279552936554,0.09426762908697128,0.16551034152507782,0.7077709436416626,0.01,0.0,0.0,0.0,0.01,0.0,0.0,0.0,0.01,0.09116335958242416,-0.032968755811452866,-0.04465370625257492,0.01,0.0,0.0,0.0,0.01,0.0,0.0,0.0,0.01,-1.0038253793176264,-9.490819378998875,-0.6192547648936509,0.01,0.0,0.0,0.0,0.01,0.0,0.0,0.0,0.01
1700026356.7590232,38676,1700026356,741120512,gx5_link,0.6805899739265442,0.09439966082572937,0.16525155305862427,0.707515299320221,0.01,0.0,0.0,0.0,0.01,0.0,0.0,0.0,0.01,0.09218212217092514,-0.019849294796586037,-0.04413386434316635,0.01,0.0,0.0,0.0,0.01,0.0,0.0,0.0,0.01,-0.986812431326881,-9.48051834973693,-0.6409388465005904,0.01,0.0,0.0,0.0,0.01,0.0,0.0,0.0,0.01
1700026356.765005,38677,1700026356,751132928,gx5_link,0.6808943152427673,0.0945381373167038,0.1650405079126358,0.7072532176971436,0.01,0.0,0.0,0.0,0.01,0.0,0.0,0.0,0.01,0.09392718970775604,-0.012505115009844303,-0.039008915424346924,0.01,0.0,0.0,0.0,0.01,0.0,0.0,0.0,0.01,-1.0129987927891313,-9.538135841447115,-0.6981137820750475,0.01,0.0,0.0,0.0,0.01,0.0,0.0,0.0,0.01
1700026356.7765584,38678,1700026356,761147392,gx5_link,0.6812371015548706,0.09459994733333588,0.16485601663589478,0.7069578170776367,0.01,0.0,0.0,0.0,0.01,0.0,0.0,0.0,0.01,0.10353853553533554,-0.017508817836642265,-0.02813776768743992,0.01,0.0,0.0,0.0,0.01,0.0,0.0,0.0,0.01,-1.0603030533429234,-9.48316272676587,-0.7705599365394562,0.01,0.0,0.0,0.0,0.01,0.0,0.0,0.0,0.01
1700026356.7886002,38679,1700026356,771163392,gx5_link,0.6816240549087524,0.09465125948190689,0.16463004052639008,0.706630527973175,0.01,0.0,0.0,0.0,0.01,0.0,0.0,0.0,0.01,0.11136623471975327,-0.024346254765987396,-0.028904981911182404,0.01,0.0,0.0,0.0,0.01,0.0,0.0,0.0,0.01,-1.0870565471686422,-9.413367306005954,-0.7072290356185287,0.01,0.0,0.0,0.0,0.01,0.0,0.0,0.0,0.01
1700026356.7966282,38680,1700026356,781177088,gx5_link,0.6820592880249023,0.09475186467170715,0.1644035428762436,0.7062498331069946,0.01,0.0,0.0,0.0,0.01,0.0,0.0,0.0,0.01,0.12173449993133545,-0.019567342475056648,-0.033554188907146454,0.01,0.0,0.0,0.0,0.01,0.0,0.0,0.0,0.01,-1.1338486204165965,-9.408673010709881,-0.5917284235319122,0.01,0.0,0.0,0.0,0.01,0.0,0.0,0.0,0.01
1700026356.814901,38681,1700026356,791197184,gx5_link,0.6824942231178284,0.09494076669216156,0.16418588161468506,0.7058547139167786,0.01,0.0,0.0,0.0,0.01,0.0,0.0,0.0,0.01,0.12658092379570007,-0.009054926224052906,-0.04478776082396507,0.01,0.0,0.0,0.0,0.01,0.0,0.0,0.0,0.01,-1.1713290407661348,-9.420320778405666,-0.5511656000623479,0.01,0.0,0.0,0.0,0.01,0.0,0.0,0.0,0.01
1700026356.8185308,38682,1700026356,801213440,gx5_link,0.6829215288162231,0.09523585438728333,0.16397733986377716,0.7054501175880432,0.01,0.0,0.0,0.0,0.01,0.0,0.0,0.0,0.01,0.12668785452842712,0.007335186004638672,-0.05707375332713127,0.01,0.0,0.0,0.0,0.01,0.0,0.0,0.0,0.01,-1.174756019540131,-9.474138293310999,-0.43409182037487626,0.01,0.0,0.0,0.0,0.01,0.0,0.0,0.0,0.01
1700026356.8256586,38683,1700026356,811226624,gx5_link,0.6833316683769226,0.09561372548341751,0.16384147107601166,0.7050332427024841,0.01,0.0,0.0,0.0,0.01,0.0,0.0,0.0,0.01,0.12838687002658844,0.02751457877457142,-0.05839904025197029,0.01,0.0,0.0,0.0,0.01,0.0,0.0,0.0,0.01,-1.1789270946796984,-9.550383913123607,-0.4396355721071362,0.01,0.0,0.0,0.0,0.01,0.0,0.0,0.0,0.01
1700026356.8360317,38684,1700026356,821240320,gx5_link,0.6837329268455505,0.09599350392818451,0.16377589106559753,0.7046077251434326,0.01,0.0,0.0,0.0,0.01,0.0,0.0,0.0,0.01,0.13286730647087097,0.040282733738422394,-0.05047408491373062,0.01,0.0,0.0,0.0,0.01,0.0,0.0,0.0,0.01,-1.1807936922691762,-9.589272738966345,-0.5646637813977897,0.01,0.0,0.0,0.0,0.01,0.0,0.0,0.0,0.01
1700026356.8495326,38685,1700026356,831257088,gx5_link,0.684188187122345,0.09634984284639359,0.16376744210720062,0.7041190266609192,0.01,0.0,0.0,0.0,0.01,0.0,0.0,0.0,0.01,0.14578020572662354,0.047165852040052414,-0.03727365657687187,0.01,0.0,0.0,0.0,0.01,0.0,0.0,0.0,0.01,-1.1719942266765981,-9.610153614431619,-0.5599035081934184,0.01,0.0,0.0,0.0,0.01,0.0,0.0,0.0,0.01
1700026356.858009,38686,1700026356,841271040,gx5_link,0.684697687625885,0.09669985622167587,0.16380631923675537,0.7035664916038513,0.01,0.0,0.0,0.0,0.01,0.0,0.0,0.0,0.01,0.15946058928966522,0.05148479342460632,-0.026804333552718163,0.01,0.0,0.0,0.0,0.01,0.0,0.0,0.0,0.01,-1.166644170885533,-9.537692773854731,-0.5436631154777481,0.01,0.0,0.0,0.0,0.01,0.0,0.0,0.0,0.01
1700026356.8706279,38687,1700026356,851287808,gx5_link,0.6852096319198608,0.09706643223762512,0.1638336181640625,0.7030109763145447,0.01,0.0,0.0,0.0,0.01,0.0,0.0,0.0,0.01,0.16396066546440125,0.05217085778713226,-0.0305478572845459,0.01,0.0,0.0,0.0,0.01,0.0,0.0,0.0,0.01,-1.1806043071769177,-9.42637584066093,-0.5393630801962688,0.01,0.0,0.0,0.0,0.01,0.0,0.0,0.0,0.01
1700026356.878112,38688,1700026356,861304064,gx5_link,0.6857413053512573,0.09750480949878693,0.16380125284194946,0.7024392485618591,0.01,0.0,0.0,0.0,0.01,0.0,0.0,0.0,0.01,0.16894662380218506,0.05396479740738869,-0.046018630266189575,0.01,0.0,0.0,0.0,0.01,0.0,0.0,0.0,0.01,-1.2085312286961822,-9.399729825797676,-0.46105716685298825,0.01,0.0,0.0,0.0,0.01,0.0,0.0,0.0,0.01
1700026356.8854377,38689,1700026356,871316992,gx5_link,0.6862522959709167,0.0980350598692894,0.1637079119682312,0.7018879055976868,0.01,0.0,0.0,0.0,0.01,0.0,0.0,0.0,0.01,0.16780276596546173,0.059175193309783936,-0.06903288513422012,0.01,0.0,0.0,0.0,0.01,0.0,0.0,0.0,0.01,-1.2510603838026524,-9.403065692222118,-0.4462971488881856,0.01,0.0,0.0,0.0,0.01,0.0,0.0,0.0,0.01
1700026356.8974729,38690,1700026356,881331456,gx5_link,0.6867016553878784,0.09869329631328583,0.16355639696121216,0.701391339302063,0.01,0.0,0.0,0.0,0.01,0.0,0.0,0.0,0.01,0.15591548383235931,0.06848486512899399,-0.09929034113883972,0.01,0.0,0.0,0.0,0.01,0.0,0.0,0.0,0.01,-1.2592084728144108,-9.37051951340437,-0.3394914825737476,0.01,0.0,0.0,0.0,0.01,0.0,0.0,0.0,0.01
1700026356.9106991,38691,1700026356,891348480,gx5_link,0.6870937943458557,0.09954262524843216,0.16333812475204468,0.7009380459785461,0.01,0.0,0.0,0.0,0.01,0.0,0.0,0.0,0.01,0.14545512199401855,0.0850098729133606,-0.13329778611660004,0.01,0.0,0.0,0.0,0.01,0.0,0.0,0.0,0.01,-1.2209773071628063,-9.39194457874894,-0.19720511835962531,0.01,0.0,0.0,0.0,0.01,0.0,0.0,0.0,0.01
1700026356.915671,38692,1700026356,901360640,gx5_link,0.6874401569366455,0.1005253717303276,0.1631161868572235,0.7005097270011902,0.01,0.0,0.0,0.0,0.01,0.0,0.0,0.0,0.01,0.14139032363891602,0.10398494452238083,-0.15398311614990234,0.01,0.0,0.0,0.0,0.01,0.0,0.0,0.0,0.01,-1.2085049252111464,-9.53463630889356,-0.24392724991021678,0.01,0.0,0.0,0.0,0.01,0.0,0.0,0.0,0.01
1700026356.9259338,38693,1700026356,911374336,gx5_link,0.6877431273460388,0.10152021795511246,0.16291901469230652,0.7001146674156189,0.01,0.0,0.0,0.0,0.01,0.0,0.0,0.0,0.01,0.1358965039253235,0.11168114840984344,-0.15650364756584167,0.01,0.0,0.0,0.0,0.01,0.0,0.0,0.0,0.01,-1.2059794253215192,-9.648282561817764,-0.31539537138901647,0.01,0.0,0.0,0.0,0.01,0.0,0.0,0.0,0.01
1700026356.9385664,38694,1700026356,921390080,gx5_link,0.6880678534507751,0.10249240696430206,0.16276012361049652,0.6996906995773315,0.01,0.0,0.0,0.0,0.01,0.0,0.0,0.0,0.01,0.13788393139839172,0.11590419709682465,-0.14923514425754547,0.01,0.0,0.0,0.0,0.01,0.0,0.0,0.0,0.01,-1.1982147096041589,-9.773018948554991,-0.30362500022687017,0.01,0.0,0.0,0.0,0.01,0.0,0.0,0.0,0.01
1700026356.9465053,38695,1700026356,931403008,gx5_link,0.6884111762046814,0.10344099253416061,0.1626737117767334,0.69923335313797,0.01,0.0,0.0,0.0,0.01,0.0,0.0,0.0,0.01,0.14219987392425537,0.12291102111339569,-0.13534580171108246,0.01,0.0,0.0,0.0,0.01,0.0,0.0,0.0,0.01,-1.1703497474052011,-9.84036872972846,-0.2574742753560655,0.01,0.0,0.0,0.0,0.01,0.0,0.0,0.0,0.01
1700026356.957093,38696,1700026356,941417728,gx5_link,0.6887664198875427,0.10443910211324692,0.16264940798282623,0.6987407207489014,0.01,0.0,0.0,0.0,0.01,0.0,0.0,0.0,0.01,0.14476999640464783,0.13598689436912537,-0.13152067363262177,0.01,0.0,0.0,0.0,0.01,0.0,0.0,0.0,0.01,-1.1292451452091337,-9.8169820089221,-0.1597790768121369,0.01,0.0,0.0,0.0,0.01,0.0,0.0,0.0,0.01
1700026356.9751322,38697,1700026356,951434240,gx5_link,0.6890755295753479,0.10554870218038559,0.16264379024505615,0.6982703804969788,0.01,0.0,0.0,0.0,0.01,0.0,0.0,0.0,0.01,0.1411622017621994,0.1558750569820404,-0.14221301674842834,0.01,0.0,0.0,0.0,0.01,0.0,0.0,0.0,0.01,-1.0684898669298737,-9.803057528465986,-0.20148071331959216,0.01,0.0,0.0,0.0,0.01,0.0,0.0,0.0,0.01
1700026356.9769995,38698,1700026356,961447680,gx5_link,0.689340353012085,0.10676628351211548,0.16260087490081787,0.697833776473999,0.01,0.0,0.0,0.0,0.01,0.0,0.0,0.0,0.01,0.1364685595035553,0.16899016499519348,-0.1603868454694748,0.01,0.0,0.0,0.0,0.01,0.0,0.0,0.0,0.01,-1.0206786067020148,-9.90031028047204,-0.21658209206797183,0.01,0.0,0.0,0.0,0.01,0.0,0.0,0.0,0.01
1700026356.9856944,38699,1700026356,971461376,gx5_link,0.6895394325256348,0.10800164937973022,0.162542924284935,0.6974602937698364,0.01,0.0,0.0,0.0,0.01,0.0,0.0,0.0,0.01,0.1264798492193222,0.1722133606672287,-0.16740959882736206,0.01,0.0,0.0,0.0,0.01,0.0,0.0,0.0,0.01,-0.9693369803909212,-10.03071009979844,-0.3496289918370545,0.01,0.0,0.0,0.0,0.01,0.0,0.0,0.0,0.01
1700026357.0005243,38700,1700026356,981478400,gx5_link,0.6896961331367493,0.10919215530157089,0.16243821382522583,0.6971443891525269,0.01,0.0,0.0,0.0,0.01,0.0,0.0,0.0,0.01,0.11625334620475769,0.16275465488433838,-0.17161805927753448,0.01,0.0,0.0,0.0,0.01,0.0,0.0,0.0,0.01,-0.9405451126053929,-10.087568882095812,-0.44742677397262304,0.01,0.0,0.0,0.0,0.01,0.0,0.0,0.0,0.01
1700026357.0078583,38701,1700026356,991492096,gx5_link,0.6898360848426819,0.11030953377485275,0.16228143870830536,0.6968664526939392,0.01,0.0,0.0,0.0,0.01,0.0,0.0,0.0,0.01,0.10579279810190201,0.14789924025535583,-0.16901104152202606,0.01,0.0,0.0,0.0,0.01,0.0,0.0,0.0,0.01,-0.9132339848969131,-10.163306552386283,-0.3938048181720078,0.01,0.0,0.0,0.0,0.01,0.0,0.0,0.0,0.01
1700026357.019999,38702,1700026357,1507840,gx5_link,0.6899702548980713,0.11137270927429199,0.16214512288570404,0.696596086025238,0.01,0.0,0.0,0.0,0.01,0.0,0.0,0.0,0.01,0.09794700145721436,0.14251895248889923,-0.16044571995735168,0.01,0.0,0.0,0.0,0.01,0.0,0.0,0.0,0.01,-0.8861016478214413,-10.222616819489001,-0.3533224395275116,0.01,0.0,0.0,0.0,0.01,0.0,0.0,0.0,0.01
1700026357.028727,38703,1700026357,11523840,gx5_link,0.6900433301925659,0.11245288699865341,0.16205358505249023,0.6963714361190796,0.01,0.0,0.0,0.0,0.01,0.0,0.0,0.0,0.01,0.08020522445440292,0.14812876284122467,-0.15806064009666443,0.01,0.0,0.0,0.0,0.01,0.0,0.0,0.0,0.01,-0.8184738534241914,-10.139957240980863,-0.24808522810619324,0.01,0.0,0.0,0.0,0.01,0.0,0.0,0.0,0.01
1700026357.0354424,38704,1700026357,21536768,gx5_link,0.6900409460067749,0.1136029064655304,0.16201089322566986,0.6961970925331116,0.01,0.0,0.0,0.0,0.01,0.0,0.0,0.0,0.01,0.06242495775222778,0.16508455574512482,-0.1595747172832489,0.01,0.0,0.0,0.0,0.01,0.0,0.0,0.0,0.01,-0.7549203957937657,-10.105113891136646,-0.1412727484584786,0.01,0.0,0.0,0.0,0.01,0.0,0.0,0.0,0.01
1700026357.04733,38705,1700026357,31551488,gx5_link,0.6900042295455933,0.1147468313574791,0.16208797693252563,0.696027934551239,0.01,0.0,0.0,0.0,0.01,0.0,0.0,0.0,0.01,0.055959299206733704,0.1803363710641861,-0.14562347531318665,0.01,0.0,0.0,0.0,0.01,0.0,0.0,0.0,0.01,-0.734403092943877,-10.180708938086033,-0.20986708633294326,0.01,0.0,0.0,0.0,0.01,0.0,0.0,0.0,0.01
1700026357.0592687,38706,1700026357,41567744,gx5_link,0.6899639964103699,0.11584753543138504,0.16228675842285156,0.6958391070365906,0.01,0.0,0.0,0.0,0.01,0.0,0.0,0.0,0.01,0.053336746990680695,0.1934836357831955,-0.12226058542728424,0.01,0.0,0.0,0.0,0.01,0.0,0.0,0.0,0.01,-0.6767168468464165,-10.164982961165904,-0.22698391482327132,0.01,0.0,0.0,0.0,0.01,0.0,0.0,0.0,0.01
1700026357.0656555,38707,1700026357,51579904,gx5_link,0.6899137496948242,0.1169588714838028,0.16255488991737366,0.6956403851509094,0.01,0.0,0.0,0.0,0.01,0.0,0.0,0.0,0.01,0.04757566750049591,0.20634695887565613,-0.11083144694566727,0.01,0.0,0.0,0.0,0.01,0.0,0.0,0.0,0.01,-0.5794829091386869,-10.066397499251366,-0.12716050861161202,0.01,0.0,0.0,0.0,0.01,0.0,0.0,0.0,0.01
1700026357.0847802,38708,1700026357,61593600,gx5_link,0.6898290514945984,0.11810337007045746,0.1628459393978119,0.6954630017280579,0.01,0.0,0.0,0.0,0.01,0.0,0.0,0.0,0.01,0.04247841611504555,0.2152668535709381,-0.10979647934436798,0.01,0.0,0.0,0.0,0.01,0.0,0.0,0.0,0.01,-0.5138872050909326,-10.045260018676519,-0.16018511859606951,0.01,0.0,0.0,0.0,0.01,0.0,0.0,0.0,0.01
1700026357.0895722,38709,1700026357,71610368,gx5_link,0.6897112727165222,0.11923542618751526,0.1631341576576233,0.6953190565109253,0.01,0.0,0.0,0.0,0.01,0.0,0.0,0.0,0.01,0.03638094663619995,0.21471744775772095,-0.10863729566335678,0.01,0.0,0.0,0.0,0.01,0.0,0.0,0.0,0.01,-0.4474973184581846,-10.072658897733687,-0.19995852698730304,0.01,0.0,0.0,0.0,0.01,0.0,0.0,0.0,0.01
1700026357.0963385,38710,1700026357,81623808,gx5_link,0.6895545721054077,0.12036497890949249,0.16340819001197815,0.6952154636383057,0.01,0.0,0.0,0.0,0.01,0.0,0.0,0.0,0.01,0.024724645540118217,0.21432198584079742,-0.1102880984544754,0.01,0.0,0.0,0.0,0.01,0.0,0.0,0.0,0.01,-0.35714214394614097,-10.0509287119627,-0.24397912622792645,0.01,0.0,0.0,0.0,0.01,0.0,0.0,0.0,0.01
1700026357.1070862,38711,1700026357,91638016,gx5_link,0.6893095374107361,0.12147983908653259,0.16359776258468628,0.6952199935913086,0.01,0.0,0.0,0.0,0.01,0.0,0.0,0.0,0.01,0.004316563718020916,0.20450066030025482,-0.12211867421865463,0.01,0.0,0.0,0.0,0.01,0.0,0.0,0.0,0.01,-0.2707260989813134,-9.962586411643027,-0.31187680534143,0.01,0.0,0.0,0.0,0.01,0.0,0.0,0.0,0.01
1700026357.1202567,38712,1700026357,101655552,gx5_link,0.6889941692352295,0.12261416763067245,0.16368167102336884,0.6953136920928955,0.01,0.0,0.0,0.0,0.01,0.0,0.0,0.0,0.01,-0.014034340158104897,0.19249896705150604,-0.13915544748306274,0.01,0.0,0.0,0.0,0.01,0.0,0.0,0.0,0.01,-0.18256605989336966,-9.918174438464641,-0.28487211323361844,0.01,0.0,0.0,0.0,0.01,0.0,0.0,0.0,0.01
1700026357.1267426,38713,1700026357,111668736,gx5_link,0.6886658668518066,0.12368099391460419,0.16371320188045502,0.6954425573348999,0.01,0.0,0.0,0.0,0.01,0.0,0.0,0.0,0.01,-0.020510736852884293,0.17734581232070923,-0.1377977579832077,0.01,0.0,0.0,0.0,0.01,0.0,0.0,0.0,0.01,-0.1494514244047459,-9.988456181436776,-0.3352446022516116,0.01,0.0,0.0,0.0,0.01,0.0,0.0,0.0,0.01
1700026357.1404989,38714,1700026357,121682944,gx5_link,0.6883804798126221,0.12456268817186356,0.16376744210720062,0.6955550312995911,0.01,0.0,0.0,0.0,0.01,0.0,0.0,0.0,0.01,-0.018339334055781364,0.15617972612380981,-0.11425814777612686,0.01,0.0,0.0,0.0,0.01,0.0,0.0,0.0,0.01,-0.1972390754281543,-10.104286208140849,-0.4496804346509278,0.01,0.0,0.0,0.0,0.01,0.0,0.0,0.0,0.01
1700026357.1486852,38715,1700026357,131698944,gx5_link,0.6881769895553589,0.125206857919693,0.1638425588607788,0.695622980594635,0.01,0.0,0.0,0.0,0.01,0.0,0.0,0.0,0.01,-0.01088669616729021,0.12658272683620453,-0.08271976560354233,0.01,0.0,0.0,0.0,0.01,0.0,0.0,0.0,0.01,-0.2664428687041625,-10.061548305654526,-0.44971335053984074,0.01,0.0,0.0,0.0,0.01,0.0,0.0,0.0,0.01
1700026357.1614237,38716,1700026357,141712128,gx5_link,0.6880068778991699,0.12576842308044434,0.1638687402009964,0.6956838369369507,0.01,0.0,0.0,0.0,0.01,0.0,0.0,0.0,0.01,-0.01353585347533226,0.10457552224397659,-0.07765159755945206,0.01,0.0,0.0,0.0,0.01,0.0,0.0,0.0,0.01,-0.29342343101771545,-9.842112943047285,-0.26983064797893164,0.01,0.0,0.0,0.0,0.01,0.0,0.0,0.0,0.01
1700026357.1732833,38717,1700026357,153730304,gx5_link,0.6877725124359131,0.12641257047653198,0.16378867626190186,0.6958175897598267,0.01,0.0,0.0,0.0,0.01,0.0,0.0,0.0,0.01,-0.03157664090394974,0.09627825021743774,-0.10579066723585129,0.01,0.0,0.0,0.0,0.01,0.0,0.0,0.0,0.01,-0.3469451595805585,-9.702313427212834,-0.10153386339135467,0.01,0.0,0.0,0.0,0.01,0.0,0.0,0.0,0.01
1700026357.1814718,38718,1700026357,163744000,gx5_link,0.6874583959579468,0.12716463208198547,0.16359879076480865,0.6960355639457703,0.01,0.0,0.0,0.0,0.01,0.0,0.0,0.0,0.01,-0.048521507531404495,0.09420932084321976,-0.13732723891735077,0.01,0.0,0.0,0.0,0.01,0.0,0.0,0.0,0.01,-0.4014212114598602,-9.656765728002785,0.020848025791731197,0.01,0.0,0.0,0.0,0.01,0.0,0.0,0.0,0.01
1700026357.1938565,38719,1700026357,173760768,gx5_link,0.687153160572052,0.12799958884716034,0.1633962243795395,0.6962315440177917,0.01,0.0,0.0,0.0,0.01,0.0,0.0,0.0,0.01,-0.04822137951850891,0.10286525636911392,-0.1528054028749466,0.01,0.0,0.0,0.0,0.01,0.0,0.0,0.0,0.01,-0.47396151048112656,-9.764448104086517,0.15845411181868985,0.01,0.0,0.0,0.0,0.01,0.0,0.0,0.0,0.01
1700026357.200974,38720,1700026357,183773184,gx5_link,0.6869041919708252,0.12884758412837982,0.16329649090766907,0.6963441967964172,0.01,0.0,0.0,0.0,0.01,0.0,0.0,0.0,0.01,-0.034921951591968536,0.11785490065813065,-0.14309673011302948,0.01,0.0,0.0,0.0,0.01,0.0,0.0,0.0,0.01,-0.5444709612619132,-9.8506247508049,0.19699593258835374,0.01,0.0,0.0,0.0,0.01,0.0,0.0,0.0,0.01
1700026357.211417,38721,1700026357,193787136,gx5_link,0.686716616153717,0.12973859906196594,0.1633402705192566,0.6963534951210022,0.01,0.0,0.0,0.0,0.01,0.0,0.0,0.0,0.01,-0.01820530742406845,0.14318472146987915,-0.12879270315170288,0.01,0.0,0.0,0.0,0.01,0.0,0.0,0.0,0.01,-0.559545707731694,-9.808255097109079,0.23538512007957324,0.01,0.0,0.0,0.0,0.01,0.0,0.0,0.0,0.01
1700026357.2217116,38722,1700026357,203803392,gx5_link,0.6865115761756897,0.1307419240474701,0.16350238025188446,0.6963298916816711,0.01,0.0,0.0,0.0,0.01,0.0,0.0,0.0,0.01,-0.014975925907492638,0.17249935865402222,-0.12595559656620026,0.01,0.0,0.0,0.0,0.01,0.0,0.0,0.0,0.01,-0.5296218767741695,-9.715498487478493,0.2473623754580505,0.01,0.0,0.0,0.0,0.01,0.0,0.0,0.0,0.01
1700026357.2266316,38723,1700026357,213815040,gx5_link,0.6862244606018066,0.13187921047210693,0.16369037330150604,0.696354329586029,0.01,0.0,0.0,0.0,0.01,0.0,0.0,0.0,0.01,-0.02144591510295868,0.19821865856647491,-0.13955450057983398,0.01,0.0,0.0,0.0,0.01,0.0,0.0,0.0,0.01,-0.46576684238128363,-9.651172438040375,0.14889358959258533,0.01,0.0,0.0,0.0,0.01,0.0,0.0,0.0,0.01
1700026357.2379649,38724,1700026357,223828224,gx5_link,0.6858774423599243,0.1330997198820114,0.163875550031662,0.696420431137085,0.01,0.0,0.0,0.0,0.01,0.0,0.0,0.0,0.01,-0.02578815072774887,0.2126302570104599,-0.15000975131988525,0.01,0.0,0.0,0.0,0.01,0.0,0.0,0.0,0.01,-0.40556649457104504,-9.675148941433429,-0.04978987595760263,0.01,0.0,0.0,0.0,0.01,0.0,0.0,0.0,0.01
1700026357.2509544,38725,1700026357,233844480,gx5_link,0.6855027079582214,0.13434036076068878,0.16400837898254395,0.6965199708938599,0.01,0.0,0.0,0.0,0.01,0.0,0.0,0.0,0.01,-0.025937549769878387,0.21423444151878357,-0.1603260338306427,0.01,0.0,0.0,0.0,0.01,0.0,0.0,0.0,0.01,-0.3058859491624869,-9.626473465591669,-0.23192131642652675,0.01,0.0,0.0,0.0,0.01,0.0,0.0,0.0,0.01
1700026357.2564852,38726,1700026357,243856384,gx5_link,0.6851632595062256,0.13555774092674255,0.16406457126140594,0.6966049075126648,0.01,0.0,0.0,0.0,0.01,0.0,0.0,0.0,0.01,-0.014726391062140465,0.20488709211349487,-0.16569624841213226,0.01,0.0,0.0,0.0,0.01,0.0,0.0,0.0,0.01,-0.2710742365655489,-9.637128130596876,-0.3514591664062813,0.01,0.0,0.0,0.0,0.01,0.0,0.0,0.0,0.01
1700026357.2713654,38727,1700026357,253871616,gx5_link,0.6849177479743958,0.13669916987419128,0.16400642693042755,0.696636974811554,0.01,0.0,0.0,0.0,0.01,0.0,0.0,0.0,0.01,0.004750008229166269,0.18159440159797668,-0.1689244508743286,0.01,0.0,0.0,0.0,0.01,0.0,0.0,0.0,0.01,-0.24075437376145273,-9.668232878434658,-0.40105924627967177,0.01,0.0,0.0,0.0,0.01,0.0,0.0,0.0,0.01
1700026357.2807333,38728,1700026357,263887104,gx5_link,0.6847541332244873,0.13781961798667908,0.16383828222751617,0.6966165900230408,0.01,0.0,0.0,0.0,0.01,0.0,0.0,0.0,0.01,0.023127928376197815,0.16069772839546204,-0.17574526369571686,0.01,0.0,0.0,0.0,0.01,0.0,0.0,0.0,0.01,-0.20958330095550043,-9.723779409089683,-0.36580874040666966,0.01,0.0,0.0,0.0,0.01,0.0,0.0,0.0,0.01
1700026357.2920942,38729,1700026357,273903360,gx5_link,0.6846305727958679,0.1389232873916626,0.16358058154582977,0.6965793371200562,0.01,0.0,0.0,0.0,0.01,0.0,0.0,0.0,0.01,0.03315131366252899,0.14426472783088684,-0.1841631829738617,0.01,0.0,0.0,0.0,0.01,0.0,0.0,0.0,0.01,-0.20704706047615035,-9.824918647140263,-0.3490641610285267,0.01,0.0,0.0,0.0,0.01,0.0,0.0,0.0,0.01
1700026357.2992587,38730,1700026357,283917824,gx5_link,0.684535026550293,0.13997600972652435,0.16326509416103363,0.6965364813804626,0.01,0.0,0.0,0.0,0.01,0.0,0.0,0.0,0.01,0.03929826244711876,0.1290144920349121,-0.1848747730255127,0.01,0.0,0.0,0.0,0.01,0.0,0.0,0.0,0.01,-0.19066114007625728,-9.958709862470625,-0.33358686163984236,0.01,0.0,0.0,0.0,0.01,0.0,0.0,0.0,0.01
1700026357.310755,38731,1700026357,293933824,gx5_link,0.6844494938850403,0.14095953106880188,0.16295436024665833,0.6964949369430542,0.01,0.0,0.0,0.0,0.01,0.0,0.0,0.0,0.01,0.039342351257801056,0.11783909797668457,-0.17428132891654968,0.01,0.0,0.0,0.0,0.01,0.0,0.0,0.0,0.01,-0.17420761606656013,-10.11823290042877,-0.39522348933089524,0.01,0.0,0.0,0.0,0.01,0.0,0.0,0.0,0.01
1700026357.316845,38732,1700026357,303945728,gx5_link,0.6843572854995728,0.14181603491306305,0.1626710742712021,0.6964779496192932,0.01,0.0,0.0,0.0,0.01,0.0,0.0,0.0,0.01,0.03264753520488739,0.10561244934797287,-0.15704099833965302,0.01,0.0,0.0,0.0,0.01,0.0,0.0,0.0,0.01,-0.18806378052681683,-10.233179130035639,-0.43783476976286617,0.01,0.0,0.0,0.0,0.01,0.0,0.0,0.0,0.01
1700026357.328549,38733,1700026357,313958912,gx5_link,0.684237539768219,0.14255523681640625,0.162403404712677,0.6965070962905884,0.01,0.0,0.0,0.0,0.01,0.0,0.0,0.0,0.01,0.017049789428710938,0.09214001148939133,-0.14293164014816284,0.01,0.0,0.0,0.0,0.01,0.0,0.0,0.0,0.01,-0.17416434318041427,-10.261681586420535,-0.36237460123952475,0.01,0.0,0.0,0.0,0.01,0.0,0.0,0.0,0.01
1700026357.3404424,38734,1700026357,323973888,gx5_link,0.6840683817863464,0.1432189643383026,0.1621713787317276,0.6965911388397217,0.01,0.0,0.0,0.0,0.01,0.0,0.0,0.0,0.01,-0.00226479209959507,0.08521392941474915,-0.1300889551639557,0.01,0.0,0.0,0.0,0.01,0.0,0.0,0.0,0.01,-0.18653973103100432,-10.243269146895408,-0.31379082226920874,0.01,0.0,0.0,0.0,0.01,0.0,0.0,0.0,0.01
1700026357.3544774,38735,1700026357,333986304,gx5_link,0.6838711500167847,0.1438313126564026,0.16201035678386688,0.6966961026191711,0.01,0.0,0.0,0.0,0.01,0.0,0.0,0.0,0.01,-0.01515979878604412,0.08467892557382584,-0.11665493994951248,0.01,0.0,0.0,0.0,0.01,0.0,0.0,0.0,0.01,-0.22071933800317345,-10.21853685669899,-0.22208609631173312,0.01,0.0,0.0,0.0,0.01,0.0,0.0,0.0,0.01
1700026357.3602095,38736,1700026357,344001280,gx5_link,0.6836766004562378,0.14440281689167023,0.1619582623243332,0.6967810392379761,0.01,0.0,0.0,0.0,0.01,0.0,0.0,0.0,0.01,-0.022611692547798157,0.09359671920537949,-0.09704195708036423,0.01,0.0,0.0,0.0,0.01,0.0,0.0,0.0,0.01,-0.2327135627827607,-10.219975949591397,-0.09708504902264102,0.01,0.0,0.0,0.0,0.01,0.0,0.0,0.0,0.01
1700026357.370374,38737,1700026357,354017024,gx5_link,0.6834526658058167,0.14499293267726898,0.16206160187721252,0.6968540549278259,0.01,0.0,0.0,0.0,0.01,0.0,0.0,0.0,0.01,-0.029257874935865402,0.11492564529180527,-0.07795177400112152,0.01,0.0,0.0,0.0,0.01,0.0,0.0,0.0,0.01,-0.19828677611649034,-10.138867692178486,-0.10812549847504123,0.01,0.0,0.0,0.0,0.01,0.0,0.0,0.0,0.01
1700026357.376141,38738,1700026357,364028416,gx5_link,0.6831786036491394,0.14559638500213623,0.16224299371242523,0.6969547271728516,0.01,0.0,0.0,0.0,0.01,0.0,0.0,0.0,0.01,-0.03709392622113228,0.1298394352197647,-0.0682886466383934,0.01,0.0,0.0,0.0,0.01,0.0,0.0,0.0,0.01,-0.16885971569996328,-10.062165560770033,-0.22059952928209675,0.01,0.0,0.0,0.0,0.01,0.0,0.0,0.0,0.01
1700026357.3883572,38739,1700026357,374041344,gx5_link,0.6828912496566772,0.146157369017601,0.16246576607227325,0.6970670819282532,0.01,0.0,0.0,0.0,0.01,0.0,0.0,0.0,0.01,-0.03857040032744408,0.13298267126083374,-0.05795790255069733,0.01,0.0,0.0,0.0,0.01,0.0,0.0,0.0,0.01,-0.1773508642620407,-10.069429998815059,-0.3097937154570594,0.01,0.0,0.0,0.0,0.01,0.0,0.0,0.0,0.01
1700026357.4018033,38740,1700026357,384057856,gx5_link,0.6826059222221375,0.1466851383447647,0.1627165526151657,0.6971772313117981,0.01,0.0,0.0,0.0,0.01,0.0,0.0,0.0,0.01,-0.040724292397499084,0.13408002257347107,-0.04950873181223869,0.01,0.0,0.0,0.0,0.01,0.0,0.0,0.0,0.01,-0.15029565667654388,-10.005921695500613,-0.31352654530983415,0.01,0.0,0.0,0.0,0.01,0.0,0.0,0.0,0.01
1700026357.4091709,38741,1700026357,394069248,gx5_link,0.682327151298523,0.1472255438566208,0.1629677414894104,0.6972775459289551,0.01,0.0,0.0,0.0,0.01,0.0,0.0,0.0,0.01,-0.0413101427257061,0.13610512018203735,-0.048854973167181015,0.01,0.0,0.0,0.0,0.01,0.0,0.0,0.0,0.01,-0.12844346109423785,-9.93928970720768,-0.3042749885682016,0.01,0.0,0.0,0.0,0.01,0.0,0.0,0.0,0.01
1700026357.4194627,38742,1700026357,404083968,gx5_link,0.682022213935852,0.14779207110404968,0.16321711242198944,0.6973975896835327,0.01,0.0,0.0,0.0,0.01,0.0,0.0,0.0,0.01,-0.04544539749622345,0.1395982801914215,-0.0528472363948822,0.01,0.0,0.0,0.0,0.01,0.0,0.0,0.0,0.01,-0.1032916851104237,-9.859737447065115,-0.3025761852936819,0.01,0.0,0.0,0.0,0.01,0.0,0.0,0.0,0.01
1700026357.4301503,38743,1700026357,414099200,gx5_link,0.6817259192466736,0.14838555455207825,0.16340935230255127,0.6975163221359253,0.01,0.0,0.0,0.0,0.01,0.0,0.0,0.0,0.01,-0.042661119252443314,0.13590151071548462,-0.062204472720623016,0.01,0.0,0.0,0.0,0.01,0.0,0.0,0.0,0.01,-0.06724835749245249,-9.771505036860704,-0.2641262805911712,0.01,0.0,0.0,0.0,0.01,0.0,0.0,0.0,0.01
1700026357.4374409,38744,1700026357,424111360,gx5_link,0.6814345121383667,0.1490057110786438,0.1635214239358902,0.6976425051689148,0.01,0.0,0.0,0.0,0.01,0.0,0.0,0.0,0.01,-0.03947462514042854,0.12883687019348145,-0.07564596086740494,0.01,0.0,0.0,0.0,0.01,0.0,0.0,0.0,0.01,-0.058066217291797506,-9.775020936027168,-0.31745708969179537,0.01,0.0,0.0,0.0,0.01,0.0,0.0,0.0,0.01
1700026357.4505298,38745,1700026357,434125824,gx5_link,0.6811155676841736,0.14962604641914368,0.16353839635849,0.6978172063827515,0.01,0.0,0.0,0.0,0.01,0.0,0.0,0.0,0.01,-0.04626953974366188,0.11665654182434082,-0.0919785276055336,0.01,0.0,0.0,0.0,0.01,0.0,0.0,0.0,0.01,-0.04477235832284204,-9.719686002296209,-0.3178514593042433,0.01,0.0,0.0,0.0,0.01,0.0,0.0,0.0,0.01
1700026357.4613547,38746,1700026357,444141568,gx5_link,0.6807608604431152,0.1502625048160553,0.16340965032577515,0.6980567574501038,0.01,0.0,0.0,0.0,0.01,0.0,0.0,0.0,0.01,-0.05488746613264084,0.09895393252372742,-0.11562058329582214,0.01,0.0,0.0,0.0,0.01,0.0,0.0,0.0,0.01,0.003294508075813064,-9.58896644949615,-0.2950784316831268,0.01,0.0,0.0,0.0,0.01,0.0,0.0,0.0,0.01
1700026357.4752114,38747,1700026357,454153472,gx5_link,0.6804137229919434,0.15097668766975403,0.16318297386169434,0.6982940435409546,0.01,0.0,0.0,0.0,0.01,0.0,0.0,0.0,0.01,-0.055105648934841156,0.09520187228918076,-0.13670168817043304,0.01,0.0,0.0,0.0,0.01,0.0,0.0,0.0,0.01,0.03701516832481138,-9.536824758848548,-0.1377504378175363,0.01,0.0,0.0,0.0,0.01,0.0,0.0,0.0,0.01
1700026357.478007,38748,1700026357,464166912,gx5_link,0.6801053285598755,0.1517045944929123,0.16289779543876648,0.6985032558441162,0.01,0.0,0.0,0.0,0.01,0.0,0.0,0.0,0.01,-0.04698973894119263,0.08827502280473709,-0.14758239686489105,0.01,0.0,0.0,0.0,0.01,0.0,0.0,0.0,0.01,0.06184570386447012,-9.474030741283297,-0.07021819904951844,0.01,0.0,0.0,0.0,0.01,0.0,0.0,0.0,0.01
1700026357.4898481,38749,1700026357,474181888,gx5_link,0.6798261404037476,0.15242180228233337,0.1625458151102066,0.6987009048461914,0.01,0.0,0.0,0.0,0.01,0.0,0.0,0.0,0.01,-0.03634770214557648,0.07773172110319138,-0.1545187532901764,0.01,0.0,0.0,0.0,0.01,0.0,0.0,0.0,0.01,0.06995881746097002,-9.452326274475455,-0.1533896497696638,0.01,0.0,0.0,0.0,0.01,0.0,0.0,0.0,0.01
1700026357.496778,38750,1700026357,484193536,gx5_link,0.6795781850814819,0.15312322974205017,0.16212740540504456,0.698885977268219,0.01,0.0,0.0,0.0,0.01,0.0,0.0,0.0,0.01,-0.030982887372374535,0.0651455670595169,-0.16105018556118011,0.01,0.0,0.0,0.0,0.01,0.0,0.0,0.0,0.01,0.056632599725527685,-9.48948725361228,-0.1222223489565309,0.01,0.0,0.0,0.0,0.01,0.0,0.0,0.0,0.01
1700026357.5090518,38751,1700026357,494207232,gx5_link,0.6793313026428223,0.1538170427083969,0.16164857149124146,0.699084460735321,0.01,0.0,0.0,0.0,0.01,0.0,0.0,0.0,0.01,-0.030283460393548012,0.05611339583992958,-0.17008076608181,0.01,0.0,0.0,0.0,0.01,0.0,0.0,0.0,0.01,0.07835852031335235,-9.47012905766964,-0.11213957468830048,0.01,0.0,0.0,0.0,0.01,0.0,0.0,0.0,0.01
1700026357.524619,38752,1700026357,504222976,gx5_link,0.6790384650230408,0.15456071496009827,0.16112582385540009,0.6993255615234375,0.01,0.0,0.0,0.0,0.01,0.0,0.0,0.0,0.01,-0.03699134662747383,0.0551074743270874,-0.1827279031276703,0.01,0.0,0.0,0.0,0.01,0.0,0.0,0.0,0.01,0.12593403555657715,-9.468801608458161,-0.15144010487077758,0.01,0.0,0.0,0.0,0.01,0.0,0.0,0.0,0.01
1700026357.5267062,38753,1700026357,514234112,gx5_link,0.6787419319152832,0.15529295802116394,0.1606007069349289,0.6995719075202942,0.01,0.0,0.0,0.0,0.01,0.0,0.0,0.0,0.01,-0.03641889989376068,0.05417174473404884,-0.18096308410167694,0.01,0.0,0.0,0.0,0.01,0.0,0.0,0.0,0.01,0.1738017934783362,-9.548194878646731,-0.19425054287035018,0.01,0.0,0.0,0.0,0.01,0.0,0.0,0.0,0.01
1700026357.5400436,38754,1700026357,524248320,gx5_link,0.678528368473053,0.15594106912612915,0.16012011468410492,0.6997450590133667,0.01,0.0,0.0,0.0,0.01,0.0,0.0,0.0,0.01,-0.018914707005023956,0.049875158816576004,-0.1582506000995636,0.01,0.0,0.0,0.0,0.01,0.0,0.0,0.0,0.01,0.24267376098409293,-9.692091308405995,-0.2653338662826456,0.01,0.0,0.0,0.0,0.01,0.0,0.0,0.0,0.01
1700026357.5514772,38755,1700026357,534264320,gx5_link,0.6784111857414246,0.15641267597675323,0.15974357724189758,0.6998395323753357,0.01,0.0,0.0,0.0,0.01,0.0,0.0,0.0,0.01,0.0012267339043319225,0.04151191934943199,-0.11745597422122955,0.01,0.0,0.0,0.0,0.01,0.0,0.0,0.0,0.01,0.3062692493916489,-9.791287011173367,-0.46345754252560434,0.01,0.0,0.0,0.0,0.01,0.0,0.0,0.0,0.01
1700026357.5581796,38756,1700026357,544276736,gx5_link,0.6783722043037415,0.1566440612077713,0.15941110253334045,0.6999013423919678,0.01,0.0,0.0,0.0,0.01,0.0,0.0,0.0,0.01,0.014903312548995018,0.016691848635673523,-0.07712986320257187,0.01,0.0,0.0,0.0,0.01,0.0,0.0,0.0,0.01,0.3150200352706015,-9.846509716701506,-0.6817420545972883,0.01,0.0,0.0,0.0,0.01,0.0,0.0,0.0,0.01
1700026357.568721,38757,1700026357,554290176,gx5_link,0.6783737540245056,0.156650111079216,0.15907296538352966,0.6999754905700684,0.01,0.0,0.0,0.0,0.01,0.0,0.0,0.0,0.01,0.015083572827279568,-0.014260869473218918,-0.04622676968574524,0.01,0.0,0.0,0.0,0.01,0.0,0.0,0.0,0.01,0.3060357328967191,-9.880735811430215,-0.7267066201571375,0.01,0.0,0.0,0.0,0.01,0.0,0.0,0.0,0.01
1700026357.585143,38758,1700026357,564305408,gx5_link,0.6783836483955383,0.15650391578674316,0.15870943665504456,0.7000810503959656,0.01,0.0,0.0,0.0,0.01,0.0,0.0,0.0,0.01,0.006418897770345211,-0.04174533858895302,-0.027750790119171143,0.01,0.0,0.0,0.0,0.01,0.0,0.0,0.0,0.01,0.30760997820980845,-9.833418764460086,-0.6796674402803182,0.01,0.0,0.0,0.0,0.01,0.0,0.0,0.0,0.01
1700026357.5868325,38759,1700026357,574316800,gx5_link,0.6783522367477417,0.15628734230995178,0.15831592679023743,0.7002489566802979,0.01,0.0,0.0,0.0,0.01,0.0,0.0,0.0,0.01,-0.01006906758993864,-0.05961082503199577,-0.024596648290753365,0.01,0.0,0.0,0.0,0.01,0.0,0.0,0.0,0.01,0.3064094981125556,-9.771410344314575,-0.5904022164294496,0.01,0.0,0.0,0.0,0.01,0.0,0.0,0.0,0.01
1700026357.5985813,38760,1700026357,584330496,gx5_link,0.678305983543396,0.15603666007518768,0.15792563557624817,0.7004377841949463,0.01,0.0,0.0,0.0,0.01,0.0,0.0,0.0,0.01,-0.019928649067878723,-0.06662479788064957,-0.018362464383244514,0.01,0.0,0.0,0.0,0.01,0.0,0.0,0.0,0.01,0.300377926330734,-9.811868611431121,-0.5014746270351111,0.01,0.0,0.0,0.0,0.01,0.0,0.0,0.0,0.01
1700026357.6112504,38761,1700026357,594345984,gx5_link,0.678286612033844,0.1557026356458664,0.15761025249958038,0.7006018757820129,0.01,0.0,0.0,0.0,0.01,0.0,0.0,0.0,0.01,-0.019876498728990555,-0.06969641149044037,0.0034191072918474674,0.01,0.0,0.0,0.0,0.01,0.0,0.0,0.0,0.01,0.2953190903048962,-9.904349326729774,-0.4346951930955052,0.01,0.0,0.0,0.0,0.01,0.0,0.0,0.0,0.01
1700026357.6165655,38762,1700026357,602359040,gx5_link,0.6783490180969238,0.15525251626968384,0.15743538737297058,0.700680673122406,0.01,0.0,0.0,0.0,0.01,0.0,0.0,0.0,0.01,-0.012007360346615314,-0.0693204402923584,0.041942838579416275,0.01,0.0,0.0,0.0,0.01,0.0,0.0,0.0,0.01,0.3076617449296638,-10.01866076556444,-0.3420585565827787,0.01,0.0,0.0,0.0,0.01,0.0,0.0,0.0,0.01
1700026357.6330917,38763,1700026357,612375552,gx5_link,0.6784566044807434,0.15465235710144043,0.15742158889770508,0.7007123231887817,0.01,0.0,0.0,0.0,0.01,0.0,0.0,0.0,0.01,-0.010149108245968819,-0.07011722773313522,0.08583758771419525,0.01,0.0,0.0,0.0,0.01,0.0,0.0,0.0,0.01,0.29972349927630276,-10.08545057476759,-0.31508024102523924,0.01,0.0,0.0,0.0,0.01,0.0,0.0,0.0,0.01
1700026357.6413703,38764,1700026357,622393344,gx5_link,0.6785431504249573,0.1539107710123062,0.15752452611923218,0.7007686495780945,0.01,0.0,0.0,0.0,0.01,0.0,0.0,0.0,0.01,-0.022098442539572716,-0.0726436898112297,0.11992920935153961,0.01,0.0,0.0,0.0,0.01,0.0,0.0,0.0,0.01,0.3010984043586999,-10.021312156856059,-0.31951793121173977,0.01,0.0,0.0,0.0,0.01,0.0,0.0,0.0,0.01
1700026357.646394,38765,1700026357,632406272,gx5_link,0.6785703897476196,0.15310490131378174,0.15769092738628387,0.7008814811706543,0.01,0.0,0.0,0.0,0.01,0.0,0.0,0.0,0.01,-0.043055593967437744,-0.07406710088253021,0.13650201261043549,0.01,0.0,0.0,0.0,0.01,0.0,0.0,0.0,0.01,0.31020923745539036,-9.916370603913068,-0.2273076486186124,0.01,0.0,0.0,0.0,0.01,0.0,0.0,0.0,0.01
1700026357.6600735,38766,1700026357,642422784,gx5_link,0.6785357594490051,0.152289479970932,0.15792672336101532,0.7010394334793091,0.01,0.0,0.0,0.0,0.01,0.0,0.0,0.0,0.01,-0.06203475594520569,-0.0686529204249382,0.14735420048236847,0.01,0.0,0.0,0.0,0.01,0.0,0.0,0.0,0.01,0.30604627255704253,-9.850582665228844,-0.17003235794221983,0.01,0.0,0.0,0.0,0.01,0.0,0.0,0.0,0.01
1700026357.6735132,38767,1700026357,652440832,gx5_link,0.6784760355949402,0.15150970220565796,0.1582621932029724,0.7011905312538147,0.01,0.0,0.0,0.0,0.01,0.0,0.0,0.0,0.01,-0.07203776389360428,-0.050289761275053024,0.1600661426782608,0.01,0.0,0.0,0.0,0.01,0.0,0.0,0.0,0.01,0.40194742729105054,-9.861681566870212,-0.03595891443726141,0.01,0.0,0.0,0.0,0.01,0.0,0.0,0.0,0.01
1700026357.6837056,38768,1700026357,665456640,gx5_link,0.6783745884895325,0.15078142285346985,0.15882916748523712,0.7013174295425415,0.01,0.0,0.0,0.0,0.01,0.0,0.0,0.0,0.01,-0.08414563536643982,-0.014150581322610378,0.1898004710674286,0.01,0.0,0.0,0.0,0.01,0.0,0.0,0.0,0.01,0.5201842594085261,-10.125821163600683,0.01917558308446314,0.01,0.0,0.0,0.0,0.01,0.0,0.0,0.0,0.01
1700026357.6931205,38769,1700026357,675469312,gx5_link,0.6781632304191589,0.1498396098613739,0.1595965176820755,0.7015494704246521,0.01,0.0,0.0,0.0,0.01,0.0,0.0,0.0,0.01,-0.11244694888591766,-0.010981924831867218,0.23926113545894623,0.01,0.0,0.0,0.0,0.01,0.0,0.0,0.0,0.01,0.5561450689753518,-10.40613681910634,-0.29756356302974746,0.01,0.0,0.0,0.0,0.01,0.0,0.0,0.0,0.01
1700026357.7036576,38770,1700026357,685483776,gx5_link,0.6779171824455261,0.14851094782352448,0.16057349741458893,0.7018468379974365,0.01,0.0,0.0,0.0,0.01,0.0,0.0,0.0,0.01,-0.13501805067062378,-0.03139394521713257,0.3165850341320038,0.01,0.0,0.0,0.0,0.01,0.0,0.0,0.0,0.01,0.5533950761474669,-10.641365963172913,-0.544292426357232,0.01,0.0,0.0,0.0,0.01,0.0,0.0,0.0,0.01
1700026357.7130568,38771,1700026357,695500288,gx5_link,0.6777517199516296,0.14671535789966583,0.1617567539215088,0.7021125555038452,0.01,0.0,0.0,0.0,0.01,0.0,0.0,0.0,0.01,-0.13967518508434296,-0.06659072637557983,0.4066104292869568,0.01,0.0,0.0,0.0,0.01,0.0,0.0,0.0,0.01,0.49317916544191537,-10.649660328787565,-0.6795821731496602,0.01,0.0,0.0,0.0,0.01,0.0,0.0,0.0,0.01
1700026357.7203991,38772,1700026357,705512448,gx5_link,0.6776750087738037,0.1444854885339737,0.16306819021701813,0.7023456692695618,0.01,0.0,0.0,0.0,0.01,0.0,0.0,0.0,0.01,-0.1390678733587265,-0.1079706996679306,0.4820824861526489,0.01,0.0,0.0,0.0,0.01,0.0,0.0,0.0,0.01,0.399597137837857,-10.460568666517734,-0.7633885836053639,0.01,0.0,0.0,0.0,0.01,0.0,0.0,0.0,0.01
1700026357.7386785,38773,1700026357,715526400,gx5_link,0.6776543855667114,0.14205779135227203,0.16437633335590363,0.7025557160377502,0.01,0.0,0.0,0.0,0.01,0.0,0.0,0.0,0.01,-0.1384492814540863,-0.1399359256029129,0.5124691128730774,0.01,0.0,0.0,0.0,0.01,0.0,0.0,0.0,0.01,0.3037519328084774,-10.055987164396047,-0.6818783943280577,0.01,0.0,0.0,0.0,0.01,0.0,0.0,0.0,0.01
1700026357.7430882,38774,1700026357,725543168,gx5_link,0.6776419878005981,0.13968001306056976,0.16548697650432587,0.7027836441993713,0.01,0.0,0.0,0.0,0.01,0.0,0.0,0.0,0.01,-0.13305284082889557,-0.16423338651657104,0.48272550106048584,0.01,0.0,0.0,0.0,0.01,0.0,0.0,0.0,0.01,0.16244849695079028,-9.627448448103666,-0.6864114346478134,0.01,0.0,0.0,0.0,0.01,0.0,0.0,0.0,0.01
1700026357.7483025,38775,1700026357,735555584,gx5_link,0.677619218826294,0.13746535778045654,0.16623561084270477,0.7030655741691589,0.01,0.0,0.0,0.0,0.01,0.0,0.0,0.0,0.01,-0.1238844245672226,-0.18968184292316437,0.41011175513267517,0.01,0.0,0.0,0.0,0.01,0.0,0.0,0.0,0.01,-0.03468383473383728,-9.398343339875339,-0.7281235012177377,0.01,0.0,0.0,0.0,0.01,0.0,0.0,0.0,0.01
1700026357.762284,38776,1700026357,745570560,gx5_link,0.6776301860809326,0.13547898828983307,0.16657832264900208,0.7033594846725464,0.01,0.0,0.0,0.0,0.01,0.0,0.0,0.0,0.01,-0.10253895074129105,-0.21474777162075043,0.32138633728027344,0.01,0.0,0.0,0.0,0.01,0.0,0.0,0.0,0.01,-0.2441733336257748,-9.379697091594338,-0.7546384370472282,0.01,0.0,0.0,0.0,0.01,0.0,0.0,0.0,0.01
1700026357.7726352,38777,1700026357,755586304,gx5_link,0.6777042746543884,0.13375477492809296,0.1666356474161148,0.7036044001579285,0.01,0.0,0.0,0.0,0.01,0.0,0.0,0.0,0.01,-0.07939689606428146,-0.22401048243045807,0.24252957105636597,0.01,0.0,0.0,0.0,0.01,0.0,0.0,0.0,0.01,-0.485033231854625,-9.518043486011027,-0.6083843382459133,0.01,0.0,0.0,0.0,0.01,0.0,0.0,0.0,0.01
1700026357.7794156,38778,1700026357,765598976,gx5_link,0.6777843236923218,0.13237415254116058,0.16647018492221832,0.7038275599479675,0.01,0.0,0.0,0.0,0.01,0.0,0.0,0.0,0.01,-0.06568893045186996,-0.21080943942070007,0.159883052110672,0.01,0.0,0.0,0.0,0.01,0.0,0.0,0.0,0.01,-0.6515986260723322,-9.484638644537329,-0.46059521189704533,0.01,0.0,0.0,0.0,0.01,0.0,0.0,0.0,0.01
1700026357.795643,38779,1700026357,775613440,gx5_link,0.6777991056442261,0.13138547539710999,0.1661529242992401,0.704073429107666,0.01,0.0,0.0,0.0,0.01,0.0,0.0,0.0,0.01,-0.06232905760407448,-0.18107722699642181,0.07849685102701187,0.01,0.0,0.0,0.0,0.01,0.0,0.0,0.0,0.01,-0.8256963520236312,-9.570865560138225,-0.31042379352152344,0.01,0.0,0.0,0.0,0.01,0.0,0.0,0.0,0.01
1700026357.8024035,38780,1700026357,785629440,gx5_link,0.6777396202087402,0.13076862692832947,0.16581304371356964,0.7043256759643555,0.01,0.0,0.0,0.0,0.01,0.0,0.0,0.0,0.01,-0.0653436928987503,-0.13421691954135895,0.016069728881120682,0.01,0.0,0.0,0.0,0.01,0.0,0.0,0.0,0.01,-0.9407211267594248,-9.665733462834357,-0.1584233513542451,0.01,0.0,0.0,0.0,0.01,0.0,0.0,0.0,0.01
1700026357.811323,38781,1700026357,795642880,gx5_link,0.6776096820831299,0.13051944971084595,0.165475532412529,0.704576313495636,0.01,0.0,0.0,0.0,0.01,0.0,0.0,0.0,0.01,-0.06596400588750839,-0.08031260222196579,-0.0386895015835762,0.01,0.0,0.0,0.0,0.01,0.0,0.0,0.0,0.01,-0.9797148012161254,-9.589007950550318,-0.06605654932542238,0.01,0.0,0.0,0.0,0.01,0.0,0.0,0.0,0.01
1700026357.820451,38782,1700026357,805656320,gx5_link,0.6773852109909058,0.130649134516716,0.16512130200862885,0.7048510313034058,0.01,0.0,0.0,0.0,0.01,0.0,0.0,0.0,0.01,-0.06722626835107803,-0.028587961569428444,-0.09443292766809464,0.01,0.0,0.0,0.0,0.01,0.0,0.0,0.0,0.01,-0.97942663192451,-9.463010165575145,-0.06399533791271969,0.01,0.0,0.0,0.0,0.01,0.0,0.0,0.0,0.01
1700026357.8334284,38783,1700026357,815673088,gx5_link,0.6771114468574524,0.13111308217048645,0.16469910740852356,0.7051267027854919,0.01,0.0,0.0,0.0,0.01,0.0,0.0,0.0,0.01,-0.061401449143886566,0.012625381350517273,-0.14983080327510834,0.01,0.0,0.0,0.0,0.01,0.0,0.0,0.0,0.01,-0.9301669995192438,-9.39608825442493,-0.057761740752775216,0.01,0.0,0.0,0.0,0.01,0.0,0.0,0.0,0.01
1700026357.8400848,38784,1700026357,825686272,gx5_link,0.6768158674240112,0.1318802684545517,0.16421489417552948,0.7053803205490112,0.01,0.0,0.0,0.0,0.01,0.0,0.0,0.0,0.01,-0.04966004565358162,0.04869133234024048,-0.19656573235988617,0.01,0.0,0.0,0.0,0.01,0.0,0.0,0.0,0.01,-0.859873419978842,-9.429740348657965,-0.1360577172239311,0.01,0.0,0.0,0.0,0.01,0.0,0.0,0.0,0.01
1700026357.8598776,38785,1700026357,835700224,gx5_link,0.6765197515487671,0.1328374743461609,0.16366145014762878,0.7056133151054382,0.01,0.0,0.0,0.0,0.01,0.0,0.0,0.0,0.01,-0.034528300166130066,0.0691031739115715,-0.2314818948507309,0.01,0.0,0.0,0.0,0.01,0.0,0.0,0.0,0.01,-0.7709140837393701,-9.462489941093326,-0.29116551428940146,0.01,0.0,0.0,0.0,0.01,0.0,0.0,0.0,0.01
1700026357.862028,38786,1700026357,845715456,gx5_link,0.6762237548828125,0.13391152024269104,0.16301099956035614,0.7058445811271667,0.01,0.0,0.0,0.0,0.01,0.0,0.0,0.0,0.01,-0.02407720685005188,0.07811659574508667,-0.25786012411117554,0.01,0.0,0.0,0.0,0.01,0.0,0.0,0.0,0.01,-0.6533244269516318,-9.556109889554977,-0.3918940526472404,0.01,0.0,0.0,0.0,0.01,0.0,0.0,0.0,0.01
1700026357.8685482,38787,1700026357,855727360,gx5_link,0.6759135127067566,0.13500992953777313,0.16229957342147827,0.7060964703559875,0.01,0.0,0.0,0.0,0.01,0.0,0.0,0.0,0.01,-0.020709723234176636,0.07459706813097,-0.2705017626285553,0.01,0.0,0.0,0.0,0.01,0.0,0.0,0.0,0.01,-0.5690981471160427,-9.701921797546744,-0.5617895046031102,0.01,0.0,0.0,0.0,0.01,0.0,0.0,0.0,0.01
1700026357.8811493,38788,1700026357,865741568,gx5_link,0.6755821108818054,0.13603299856185913,0.1615285724401474,0.7063940167427063,0.01,0.0,0.0,0.0,0.01,0.0,0.0,0.0,0.01,-0.02497781068086624,0.05954249948263168,-0.27070677280426025,0.01,0.0,0.0,0.0,0.01,0.0,0.0,0.0,0.01,-0.49114349489584563,-9.78598364406824,-0.6887506912503392,0.01,0.0,0.0,0.0,0.01,0.0,0.0,0.0,0.01
1700026357.8941674,38789,1700026357,875758848,gx5_link,0.6752545237541199,0.13697142899036407,0.16070760786533356,0.7067129611968994,0.01,0.0,0.0,0.0,0.01,0.0,0.0,0.0,0.01,-0.02909010834991932,0.04185967519879341,-0.26678165793418884,0.01,0.0,0.0,0.0,0.01,0.0,0.0,0.0,0.01,-0.42072183199636637,-9.834931507110594,-0.6923631095938384,0.01,0.0,0.0,0.0,0.01,0.0,0.0,0.0,0.01
1700026357.9012454,38790,1700026357,885772032,gx5_link,0.6749481558799744,0.13781869411468506,0.1598616987466812,0.7070327401161194,0.01,0.0,0.0,0.0,0.01,0.0,0.0,0.0,0.01,-0.02961139567196369,0.02456447295844555,-0.2575790286064148,0.01,0.0,0.0,0.0,0.01,0.0,0.0,0.0,0.01,-0.3819031487803906,-9.890116218715905,-0.6916102453999221,0.01,0.0,0.0,0.0,0.01,0.0,0.0,0.0,0.01
1700026357.9181392,38791,1700026357,895787008,gx5_link,0.6746693253517151,0.13855968415737152,0.1590198278427124,0.7073438167572021,0.01,0.0,0.0,0.0,0.01,0.0,0.0,0.0,0.01,-0.029692886397242546,0.009127876721322536,-0.24169671535491943,0.01,0.0,0.0,0.0,0.01,0.0,0.0,0.0,0.01,-0.3529693517735228,-9.937316361308097,-0.6547497835796326,0.01,0.0,0.0,0.0,0.01,0.0,0.0,0.0,0.01
1700026357.922651,38792,1700026357,905803008,gx5_link,0.6744542121887207,0.1391860544681549,0.1582556664943695,0.7075972557067871,0.01,0.0,0.0,0.0,0.01,0.0,0.0,0.0,0.01,-0.0215031486004591,0.0013376495335251093,-0.21336624026298523,0.01,0.0,0.0,0.0,0.01,0.0,0.0,0.0,0.01,-0.3361795084815472,-10.03057799785137,-0.5919660682126879,0.01,0.0,0.0,0.0,0.01,0.0,0.0,0.0,0.01
1700026357.9280577,38793,1700026357,915814400,gx5_link,0.6743278503417969,0.13965556025505066,0.15764115750789642,0.7077624797821045,0.01,0.0,0.0,0.0,0.01,0.0,0.0,0.0,0.01,-0.011226114816963673,-0.0017408072017133236,-0.16853424906730652,0.01,0.0,0.0,0.0,0.01,0.0,0.0,0.0,0.01,-0.31707448358237744,-10.148719224107264,-0.5125196430647745,0.01,0.0,0.0,0.0,0.01,0.0,0.0,0.0,0.01
1700026357.9404817,38794,1700026357,925827584,gx5_link,0.6742246747016907,0.13999885320663452,0.15724357962608337,0.7078812718391418,0.01,0.0,0.0,0.0,0.01,0.0,0.0,0.0,0.01,-0.013401010073721409,0.0056520067155361176,-0.1199755072593689,0.01,0.0,0.0,0.0,0.01,0.0,0.0,0.0,0.01,-0.3024289040437899,-10.224943216609955,-0.44223077623210844,0.01,0.0,0.0,0.0,0.01,0.0,0.0,0.0,0.01
1700026357.953441,38795,1700026357,935843840,gx5_link,0.6740956902503967,0.14022071659564972,0.15703044831752777,0.7080075144767761,0.01,0.0,0.0,0.0,0.01,0.0,0.0,0.0,0.01,-0.026196546852588654,0.012853479012846947,-0.07932073622941971,0.01,0.0,0.0,0.0,0.01,0.0,0.0,0.0,0.01,-0.2922084474710747,-10.192607465672493,-0.41478502582591026,0.01,0.0,0.0,0.0,0.01,0.0,0.0,0.0,0.01
1700026357.9591079,38796,1700026357,945855488,gx5_link,0.6738943457603455,0.1403501033782959,0.15694868564605713,0.7081916332244873,0.01,0.0,0.0,0.0,0.01,0.0,0.0,0.0,0.01,-0.04796406254172325,0.019854014739394188,-0.05032406374812126,0.01,0.0,0.0,0.0,0.01,0.0,0.0,0.0,0.01,-0.282861157003697,-10.139024344044923,-0.42227578344009814,0.01,0.0,0.0,0.0,0.01,0.0,0.0,0.0,0.01
1700026357.9770067,38797,1700026357,955870464,gx5_link,0.673631489276886,0.14043517410755157,0.15699219703674316,0.7084152698516846,0.01,0.0,0.0,0.0,0.01,0.0,0.0,0.0,0.01,-0.06602134555578232,0.029452377930283546,-0.026627177372574806,0.01,0.0,0.0,0.0,0.01,0.0,0.0,0.0,0.01,-0.26767016374310476,-10.059351672393083,-0.40511243066061287,0.01,0.0,0.0,0.0,0.01,0.0,0.0,0.0,0.01
1700026357.982059,38798,1700026357,965885952,gx5_link,0.6733606457710266,0.14047516882419586,0.15718266367912292,0.7086225748062134,0.01,0.0,0.0,0.0,0.01,0.0,0.0,0.0,0.01,-0.0730217769742012,0.04440347105264664,0.0014059857930988073,0.01,0.0,0.0,0.0,0.01,0.0,0.0,0.0,0.01,-0.24785618685698135,-10.00003205294013,-0.3559160362172872,0.01,0.0,0.0,0.0,0.01,0.0,0.0,0.0,0.01
1700026357.9910681,38799,1700026357,975898624,gx5_link,0.6731268763542175,0.14048653841018677,0.1575355976819992,0.7087640166282654,0.01,0.0,0.0,0.0,0.01,0.0,0.0,0.0,0.01,-0.06786520034074783,0.06181284412741661,0.03042430244386196,0.01,0.0,0.0,0.0,0.01,0.0,0.0,0.0,0.01,-0.23407233871426433,-9.947395856773852,-0.39648813897185026,0.01,0.0,0.0,0.0,0.01,0.0,0.0,0.0,0.01
1700026358.0005782,38800,1700026357,985912576,gx5_link,0.6728886961936951,0.14047254621982574,0.15797853469848633,0.7088942527770996,0.01,0.0,0.0,0.0,0.01,0.0,0.0,0.0,0.01,-0.06479470431804657,0.07313264906406403,0.04739531874656677,0.01,0.0,0.0,0.0,0.01,0.0,0.0,0.0,0.01,-0.21913342051859944,-9.837232185268402,-0.5208958782766014,0.01,0.0,0.0,0.0,0.01,0.0,0.0,0.0,0.01
1700026358.0130177,38801,1700026357,995928320,gx5_link,0.6726267337799072,0.14048099517822266,0.15841858088970184,0.7090429663658142,0.01,0.0,0.0,0.0,0.01,0.0,0.0,0.0,0.01,-0.0691385418176651,0.07740059494972229,0.046437472105026245,0.01,0.0,0.0,0.0,0.01,0.0,0.0,0.0,0.01,-0.18253809417420996,-9.718830846771597,-0.5483413729544728,0.01,0.0,0.0,0.0,0.01,0.0,0.0,0.0,0.01
1700026358.020695,38802,1700026358,5939712,gx5_link,0.672322690486908,0.1405460089445114,0.1588606983423233,0.7092195749282837,0.01,0.0,0.0,0.0,0.01,0.0,0.0,0.0,0.01,-0.07492052018642426,0.08601529896259308,0.04120977595448494,0.01,0.0,0.0,0.0,0.01,0.0,0.0,0.0,0.01,-0.13029104345599188,-9.663195468789338,-0.5347900366596877,0.01,0.0,0.0,0.0,0.01,0.0,0.0,0.0,0.01
1700026358.033601,38803,1700026358,15952640,gx5_link,0.6720113754272461,0.14063212275505066,0.1593060940504074,0.7093976140022278,0.01,0.0,0.0,0.0,0.01,0.0,0.0,0.0,0.01,-0.07536755502223969,0.09061294049024582,0.04097524285316467,0.01,0.0,0.0,0.0,0.01,0.0,0.0,0.0,0.01,-0.0987206508678384,-9.669434655439852,-0.6003159268742427,0.01,0.0,0.0,0.0,0.01,0.0,0.0,0.0,0.01
1700026358.0428681,38804,1700026358,25968896,gx5_link,0.6717264652252197,0.1406772881746292,0.15971960127353668,0.7095654606819153,0.01,0.0,0.0,0.0,0.01,0.0,0.0,0.0,0.01,-0.06787367165088654,0.08382603526115417,0.043078597635030746,0.01,0.0,0.0,0.0,0.01,0.0,0.0,0.0,0.01,-0.0566201101367129,-9.598517537173628,-0.7240181847907602,0.01,0.0,0.0,0.0,0.01,0.0,0.0,0.0,0.01
1700026358.0506403,38805,1700026358,35981824,gx5_link,0.6714450716972351,0.14072397351264954,0.16006183624267578,0.7097453474998474,0.01,0.0,0.0,0.0,0.01,0.0,0.0,0.0,0.01,-0.06323855370283127,0.07476002722978592,0.03374876827001572,0.01,0.0,0.0,0.0,0.01,0.0,0.0,0.0,0.01,-0.030383139581943396,-9.5023344602257,-0.8135363239567727,0.01,0.0,0.0,0.0,0.01,0.0,0.0,0.0,0.01
1700026358.0606923,38806,1700026358,45995264,gx5_link,0.6711732745170593,0.14077749848365784,0.1602673977613449,0.7099454402923584,0.01,0.0,0.0,0.0,0.01,0.0,0.0,0.0,0.01,-0.0597318671643734,0.05915890634059906,0.015433085151016712,0.01,0.0,0.0,0.0,0.01,0.0,0.0,0.0,0.01,-0.003160061191319255,-9.393339247977734,-0.8306639113031328,0.01,0.0,0.0,0.0,0.01,0.0,0.0,0.0,0.01
1700026358.0724356,38807,1700026358,56010752,gx5_link,0.6709303259849548,0.14090117812156677,0.1603357195854187,0.7101351022720337,0.01,0.0,0.0,0.0,0.01,0.0,0.0,0.0,0.01,-0.05087106674909592,0.04896515607833862,-0.010661264881491661,0.01,0.0,0.0,0.0,0.01,0.0,0.0,0.0,0.01,0.01540806094422005,-9.33845848775506,-0.798271023350954,0.01,0.0,0.0,0.0,0.01,0.0,0.0,0.0,0.01
1700026358.0810475,38808,1700026358,66023168,gx5_link,0.6707157492637634,0.141098752617836,0.16028431057929993,0.7103102207183838,0.01,0.0,0.0,0.0,0.01,0.0,0.0,0.0,0.01,-0.03874998912215233,0.04112819954752922,-0.03441567346453667,0.01,0.0,0.0,0.0,0.01,0.0,0.0,0.0,0.01,0.02714921971161384,-9.360331296867132,-0.8301248359903692,0.01,0.0,0.0,0.0,0.01,0.0,0.0,0.0,0.01
1700026358.096548,38809,1700026358,76038656,gx5_link,0.6705390810966492,0.14134906232357025,0.1601477861404419,0.710457980632782,0.01,0.0,0.0,0.0,0.01,0.0,0.0,0.0,0.01,-0.02634417451918125,0.037020329385995865,-0.05181989073753357,0.01,0.0,0.0,0.0,0.01,0.0,0.0,0.0,0.01,0.05530559347204398,-9.434260456430911,-0.8059813054673374,0.01,0.0,0.0,0.0,0.01,0.0,0.0,0.0,0.01
1700026358.1022832,38810,1700026358,86053888,gx5_link,0.670392632484436,0.14166487753391266,0.15995602309703827,0.7105764150619507,0.01,0.0,0.0,0.0,0.01,0.0,0.0,0.0,0.01,-0.01858231984078884,0.03629288077354431,-0.06533348560333252,0.01,0.0,0.0,0.0,0.01,0.0,0.0,0.0,0.01,0.11932754996363074,-9.524199670553207,-0.715195776714012,0.01,0.0,0.0,0.0,0.01,0.0,0.0,0.0,0.01
1700026358.1105392,38811,1700026358,96064768,gx5_link,0.6702702045440674,0.14200784265995026,0.1597275584936142,0.7106749415397644,0.01,0.0,0.0,0.0,0.01,0.0,0.0,0.0,0.01,-0.013547261245548725,0.035083696246147156,-0.07060500979423523,0.01,0.0,0.0,0.0,0.01,0.0,0.0,0.0,0.01,0.19980673395907506,-9.68665642387569,-0.6563230242457241,0.01,0.0,0.0,0.0,0.01,0.0,0.0,0.0,0.01
1700026358.121441,38812,1700026358,106078976,gx5_link,0.670120358467102,0.14231990277767181,0.15949660539627075,0.7108055949211121,0.01,0.0,0.0,0.0,0.01,0.0,0.0,0.0,0.01,-0.019547492265701294,0.029904061928391457,-0.0685182511806488,0.01,0.0,0.0,0.0,0.01,0.0,0.0,0.0,0.01,0.2526588013657369,-9.852469501888752,-0.706414358234778,0.01,0.0,0.0,0.0,0.01,0.0,0.0,0.0,0.01
1700026358.1385772,38813,1700026358,116094976,gx5_link,0.6699200868606567,0.14254401624202728,0.15923282504081726,0.7110086679458618,0.01,0.0,0.0,0.0,0.01,0.0,0.0,0.0,0.01,-0.03531616926193237,0.015825707465410233,-0.06373606622219086,0.01,0.0,0.0,0.0,0.01,0.0,0.0,0.0,0.01,0.2974262003856711,-9.978343952745199,-0.7589987511485815,0.01,0.0,0.0,0.0,0.01,0.0,0.0,0.0,0.01
1700026358.1387534,38814,1700026358,126106368,gx5_link,0.669658899307251,0.14265012741088867,0.1589653640985489,0.7112931609153748,0.01,0.0,0.0,0.0,0.01,0.0,0.0,0.0,0.01,-0.056189049035310745,-0.0014986601890996099,-0.054031819105148315,0.01,0.0,0.0,0.0,0.01,0.0,0.0,0.0,0.01,0.33483145487345756,-10.016605586600303,-0.7632849040351808,0.01,0.0,0.0,0.0,0.01,0.0,0.0,0.0,0.01
1700026358.1499486,38815,1700026358,136119552,gx5_link,0.6693838834762573,0.14262546598911285,0.1587419956922531,0.7116067409515381,0.01,0.0,0.0,0.0,0.01,0.0,0.0,0.0,0.01,-0.07020934671163559,-0.01635209284722805,-0.03178497031331062,0.01,0.0,0.0,0.0,0.01,0.0,0.0,0.0,0.01,0.3420924223197624,-10.0603254858613,-0.7058483218498528,0.01,0.0,0.0,0.0,0.01,0.0,0.0,0.0,0.01
1700026358.162515,38816,1700026358,146134784,gx5_link,0.6691464185714722,0.14248837530612946,0.15859703719615936,0.7118898034095764,0.01,0.0,0.0,0.0,0.01,0.0,0.0,0.0,0.01,-0.07044974714517593,-0.022188477218151093,-0.0054496051743626595,0.01,0.0,0.0,0.0,0.01,0.0,0.0,0.0,0.01,0.3424576754355803,-10.038266798788309,-0.6460113274592906,0.01,0.0,0.0,0.0,0.01,0.0,0.0,0.0,0.01
1700026358.1704574,38817,1700026358,156147200,gx5_link,0.6689615845680237,0.14226479828357697,0.15853038430213928,0.7121230363845825,0.01,0.0,0.0,0.0,0.01,0.0,0.0,0.0,0.01,-0.06463785469532013,-0.02562088705599308,0.018596559762954712,0.01,0.0,0.0,0.0,0.01,0.0,0.0,0.0,0.01,0.3332820700069889,-9.998025973814725,-0.6076972692972049,0.01,0.0,0.0,0.0,0.01,0.0,0.0,0.0,0.01
1700026358.1810982,38818,1700026358,166160640,gx5_link,0.6688230037689209,0.14196322858333588,0.15852011740207672,0.7123156785964966,0.01,0.0,0.0,0.0,0.01,0.0,0.0,0.0,0.01,-0.05514054372906685,-0.030288366600871086,0.04014705866575241,0.01,0.0,0.0,0.0,0.01,0.0,0.0,0.0,0.01,0.32083087697383017,-9.967627328419685,-0.6528145046681165,0.01,0.0,0.0,0.0,0.01,0.0,0.0,0.0,0.01
1700026358.194321,38819,1700026358,178175744,gx5_link,0.6686983108520508,0.14157222211360931,0.15852904319763184,0.712508499622345,0.01,0.0,0.0,0.0,0.01,0.0,0.0,0.0,0.01,-0.05329759046435356,-0.04038432985544205,0.05546479672193527,0.01,0.0,0.0,0.0,0.01,0.0,0.0,0.0,0.01,0.30036581576783206,-9.931376449865102,-0.7336116503052413,0.01,0.0,0.0,0.0,0.01,0.0,0.0,0.0,0.01
1700026358.2073054,38820,1700026358,188192768,gx5_link,0.6685666441917419,0.14108557999134064,0.15850171446800232,0.7127346992492676,0.01,0.0,0.0,0.0,0.01,0.0,0.0,0.0,0.01,-0.058310069143772125,-0.057940524071455,0.06201983615756035,0.01,0.0,0.0,0.0,0.01,0.0,0.0,0.0,0.01,0.26581604204270987,-9.894929171955585,-0.808741637026146,0.01,0.0,0.0,0.0,0.01,0.0,0.0,0.0,0.01
1700026358.2133772,38821,1700026358,198205184,gx5_link,0.6684144139289856,0.14050354063510895,0.15843325853347778,0.7130075693130493,0.01,0.0,0.0,0.0,0.01,0.0,0.0,0.0,0.01,-0.06662370264530182,-0.07881313562393188,0.06458001583814621,0.01,0.0,0.0,0.0,0.01,0.0,0.0,0.0,0.01,0.19949277263907714,-9.835859727871417,-0.8498742962729186,0.01,0.0,0.0,0.0,0.01,0.0,0.0,0.0,0.01
1700026358.2253103,38822,1700026358,208219648,gx5_link,0.6682928800582886,0.13983167707920074,0.15828590095043182,0.713286280632019,0.01,0.0,0.0,0.0,0.01,0.0,0.0,0.0,0.01,-0.0655198022723198,-0.10136042535305023,0.06547310203313828,0.01,0.0,0.0,0.0,0.01,0.0,0.0,0.0,0.01,0.12882090697134843,-9.755392690971494,-0.8278625901468097,0.01,0.0,0.0,0.0,0.01,0.0,0.0,0.0,0.01
1700026358.2372596,38823,1700026358,218236928,gx5_link,0.6682001352310181,0.13911472260951996,0.15808820724487305,0.7135571837425232,0.01,0.0,0.0,0.0,0.01,0.0,0.0,0.0,0.01,-0.06084582209587097,-0.11661388725042343,0.06271631270647049,0.01,0.0,0.0,0.0,0.01,0.0,0.0,0.0,0.01,0.04388138713275548,-9.677366032961011,-0.8126082493264227,0.01,0.0,0.0,0.0,0.01,0.0,0.0,0.0,0.01
1700026358.242517,38824,1700026358,228248064,gx5_link,0.6681543588638306,0.1383882462978363,0.15783675014972687,0.7137969136238098,0.01,0.0,0.0,0.0,0.01,0.0,0.0,0.0,0.01,-0.052172817289829254,-0.12740129232406616,0.05535835772752762,0.01,0.0,0.0,0.0,0.01,0.0,0.0,0.0,0.01,-0.06775071295744274,-9.60076970001459,-0.7623853979121893,0.01,0.0,0.0,0.0,0.01,0.0,0.0,0.0,0.01
1700026358.259282,38825,1700026358,238267136,gx5_link,0.6681615114212036,0.13770875334739685,0.1575334072113037,0.7139886021614075,0.01,0.0,0.0,0.0,0.01,0.0,0.0,0.0,0.01,-0.039920873939991,-0.13199685513973236,0.04160989820957184,0.01,0.0,0.0,0.0,0.01,0.0,0.0,0.0,0.01,-0.1533438926654868,-9.557790389987826,-0.6416302628308534,0.01,0.0,0.0,0.0,0.01,0.0,0.0,0.0,0.01
1700026358.2690797,38826,1700026358,248283648,gx5_link,0.6681927442550659,0.1371288299560547,0.1572144329547882,0.7141412496566772,0.01,0.0,0.0,0.0,0.01,0.0,0.0,0.0,0.01,-0.0305912084877491,-0.12343862652778625,0.02744077704846859,0.01,0.0,0.0,0.0,0.01,0.0,0.0,0.0,0.01,-0.21982364953877404,-9.549638063192367,-0.5751934683164581,0.01,0.0,0.0,0.0,0.01,0.0,0.0,0.0,0.01
1700026358.2738483,38827,1700026358,258296320,gx5_link,0.6682279706001282,0.13666747510433197,0.15689712762832642,0.7142665386199951,0.01,0.0,0.0,0.0,0.01,0.0,0.0,0.0,0.01,-0.02207197993993759,-0.10738759487867355,0.01072000339627266,0.01,0.0,0.0,0.0,0.01,0.0,0.0,0.0,0.01,-0.2790054131573066,-9.559138881987332,-0.5898310654779896,0.01,0.0,0.0,0.0,0.01,0.0,0.0,0.0,0.01
1700026358.2841177,38828,1700026358,268309504,gx5_link,0.66827392578125,0.13630011677742004,0.15659675002098083,0.7143597602844238,0.01,0.0,0.0,0.0,0.01,0.0,0.0,0.0,0.01,-0.013098297640681267,-0.09099993109703064,0.0008249075035564601,0.01,0.0,0.0,0.0,0.01,0.0,0.0,0.0,0.01,-0.322252105415985,-9.614617608103156,-0.5683828384535387,0.01,0.0,0.0,0.0,0.01,0.0,0.0,0.0,0.01
1700026358.2955978,38829,1700026358,278325504,gx5_link,0.6683143377304077,0.1360141932964325,0.1563347578048706,0.7144336700439453,0.01,0.0,0.0,0.0,0.01,0.0,0.0,0.0,0.01,-0.01088062021881342,-0.0722343698143959,-0.004767515696585178,0.01,0.0,0.0,0.0,0.01,0.0,0.0,0.0,0.01,-0.31594051111638544,-9.642758245438337,-0.5800995431996882,0.01,0.0,0.0,0.0,0.01,0.0,0.0,0.0,0.01
1700026358.3035324,38830,1700026358,288337152,gx5_link,0.6683279275894165,0.13579639792442322,0.1560952067375183,0.7145147919654846,0.01,0.0,0.0,0.0,0.01,0.0,0.0,0.0,0.01,-0.009626836515963078,-0.05945860221982002,-0.011849201284348965,0.01,0.0,0.0,0.0,0.01,0.0,0.0,0.0,0.01,-0.31203992348127063,-9.641751114222407,-0.662508946339041,0.01,0.0,0.0,0.0,0.01,0.0,0.0,0.0,0.01
1700026358.3155594,38831,1700026358,298352128,gx5_link,0.6683031916618347,0.135607048869133,0.1558396965265274,0.7146296501159668,0.01,0.0,0.0,0.0,0.01,0.0,0.0,0.0,0.01,-0.015378794632852077,-0.05469658970832825,-0.019259117543697357,0.01,0.0,0.0,0.0,0.01,0.0,0.0,0.0,0.01,-0.3098180096480995,-9.662115272337198,-0.7195486381612718,0.01,0.0,0.0,0.0,0.01,0.0,0.0,0.0,0.01
1700026358.3260365,38832,1700026358,308367360,gx5_link,0.6682524085044861,0.13543644547462463,0.15559644997119904,0.7147625088691711,0.01,0.0,0.0,0.0,0.01,0.0,0.0,0.0,0.01,-0.021576274186372757,-0.05159658566117287,-0.02176433429121971,0.01,0.0,0.0,0.0,0.01,0.0,0.0,0.0,0.01,-0.2976600091415457,-9.700682611140609,-0.7134400190878659,0.01,0.0,0.0,0.0,0.01,0.0,0.0,0.0,0.01
1700026358.3339617,38833,1700026358,318379520,gx5_link,0.6681933403015137,0.13526839017868042,0.15539094805717468,0.7148942947387695,0.01,0.0,0.0,0.0,0.01,0.0,0.0,0.0,0.01,-0.02518470399081707,-0.045837365090847015,-0.016765868291258812,0.01,0.0,0.0,0.0,0.01,0.0,0.0,0.0,0.01,-0.2761477039049379,-9.728807466384769,-0.7201747341703623,0.01,0.0,0.0,0.0,0.01,0.0,0.0,0.0,0.01
1700026358.3570032,38834,1700026358,328399872,gx5_link,0.6681100130081177,0.1350805014371872,0.15524320304393768,0.7150397300720215,0.01,0.0,0.0,0.0,0.01,0.0,0.0,0.0,0.01,-0.029248632490634918,-0.04096612334251404,-0.0069403136149048805,0.01,0.0,0.0,0.0,0.01,0.0,0.0,0.0,0.01,-0.2748551616100594,-9.724427643865347,-0.7612801400840282,0.01,0.0,0.0,0.0,0.01,0.0,0.0,0.0,0.01
1700026358.3570266,38835,1700026358,338416896,gx5_link,0.6680774688720703,0.1348274201154709,0.15517693758010864,0.7151322960853577,0.01,0.0,0.0,0.0,0.01,0.0,0.0,0.0,0.01,-0.02013934589922428,-0.036891840398311615,0.014902902767062187,0.01,0.0,0.0,0.0,0.01,0.0,0.0,0.0,0.01,-0.2753133171737194,-9.73699369544983,-0.7826209612112491,0.01,0.0,0.0,0.0,0.01,0.0,0.0,0.0,0.01
1700026358.3623557,38836,1700026358,348428800,gx5_link,0.6681175231933594,0.1344839632511139,0.15519598126411438,0.7151553630828857,0.01,0.0,0.0,0.0,0.01,0.0,0.0,0.0,0.01,-0.004918113350868225,-0.03832734376192093,0.039963915944099426,0.01,0.0,0.0,0.0,0.01,0.0,0.0,0.0,0.01,-0.30151929665189237,-9.722875153726338,-0.832225315400958,0.01,0.0,0.0,0.0,0.01,0.0,0.0,0.0,0.01
1700026358.3745737,38837,1700026358,358442752,gx5_link,0.6682310700416565,0.13410024344921112,0.15524649620056152,0.7151104211807251,0.01,0.0,0.0,0.0,0.01,0.0,0.0,0.0,0.01,0.009944884106516838,-0.03986218571662903,0.05428794398903847,0.01,0.0,0.0,0.0,0.01,0.0,0.0,0.0,0.01,-0.3074693276301026,-9.621060208371281,-0.8219337846197188,0.01,0.0,0.0,0.0,0.01,0.0,0.0,0.0,0.01
1700026358.3875554,38838,1700026358,368459776,gx5_link,0.6683653593063354,0.13376109302043915,0.15529288351535797,0.7150383591651917,0.01,0.0,0.0,0.0,0.01,0.0,0.0,0.0,0.01,0.01790488138794899,-0.03668147325515747,0.05057527497410774,0.01,0.0,0.0,0.0,0.01,0.0,0.0,0.0,0.01,-0.3120644734006375,-9.566071311599016,-0.768688005187735,0.01,0.0,0.0,0.0,0.01,0.0,0.0,0.0,0.01
1700026358.393471,38839,1700026358,378470912,gx5_link,0.6684632301330566,0.13346624374389648,0.15530867874622345,0.7149985432624817,0.01,0.0,0.0,0.0,0.01,0.0,0.0,0.0,0.01,0.013688145205378532,-0.03495321795344353,0.04014303907752037,0.01,0.0,0.0,0.0,0.01,0.0,0.0,0.0,0.01,-0.35744127302318807,-9.588074469092488,-0.8193375575814396,0.01,0.0,0.0,0.0,0.01,0.0,0.0,0.0,0.01
1700026358.4047992,38840,1700026358,388485120,gx5_link,0.668533444404602,0.1331951767206192,0.15527485311031342,0.7149907946586609,0.01,0.0,0.0,0.0,0.01,0.0,0.0,0.0,0.01,0.010478096082806587,-0.035769108682870865,0.02834947593510151,0.01,0.0,0.0,0.0,0.01,0.0,0.0,0.0,0.01,-0.39650056006200607,-9.636248425152898,-0.8501668494787067,0.01,0.0,0.0,0.0,0.01,0.0,0.0,0.0,0.01
1700026358.419795,38841,1700026358,398501120,gx5_link,0.6686128973960876,0.13296237587928772,0.15525737404823303,0.7149636745452881,0.01,0.0,0.0,0.0,0.01,0.0,0.0,0.0,0.01,0.011801904998719692,-0.02864319272339344,0.023537328466773033,0.01,0.0,0.0,0.0,0.01,0.0,0.0,0.0,0.01,-0.4190829787481576,-9.668475455018877,-0.7885966746199876,0.01,0.0,0.0,0.0,0.01,0.0,0.0,0.0,0.01
1700026358.422238,38842,1700026358,408513792,gx5_link,0.6686893701553345,0.13279376924037933,0.15526030957698822,0.7149227857589722,0.01,0.0,0.0,0.0,0.01,0.0,0.0,0.0,0.01,0.013430807739496231,-0.017435813322663307,0.018370404839515686,0.01,0.0,0.0,0.0,0.01,0.0,0.0,0.0,0.01,-0.42062381498198953,-9.644314242708683,-0.7447451118033379,0.01,0.0,0.0,0.0,0.01,0.0,0.0,0.0,0.01
1700026358.4402325,38843,1700026358,418533632,gx5_link,0.6687579154968262,0.13270148634910583,0.15528103709220886,0.714871346950531,0.01,0.0,0.0,0.0,0.01,0.0,0.0,0.0,0.01,0.014595580287277699,-0.004191450774669647,0.01103944331407547,0.01,0.0,0.0,0.0,0.01,0.0,0.0,0.0,0.01,-0.4242081762747839,-9.629850248548388,-0.7216049861691892,0.01,0.0,0.0,0.0,0.01,0.0,0.0,0.0,0.01
1700026358.4506102,38844,1700026358,428550144,gx5_link,0.668832540512085,0.1326857954263687,0.1552915871143341,0.714802086353302,0.01,0.0,0.0,0.0,0.01,0.0,0.0,0.0,0.01,0.01796053536236286,0.004390690941363573,0.001901964657008648,0.01,0.0,0.0,0.0,0.01,0.0,0.0,0.0,0.01,-0.43480621572192757,-9.653957684844732,-0.6690666974194347,0.01,0.0,0.0,0.0,0.01,0.0,0.0,0.0,0.01
1700026358.4563189,38845,1700026358,438561792,gx5_link,0.6689156889915466,0.13271351158618927,0.15532270073890686,0.714712381362915,0.01,0.0,0.0,0.0,0.01,0.0,0.0,0.0,0.01,0.022459620609879494,0.013152433559298515,-0.001682366244494915,0.01,0.0,0.0,0.0,0.01,0.0,0.0,0.0,0.01,-0.4278373630899936,-9.702850018307567,-0.6424496163897216,0.01,0.0,0.0,0.0,0.01,0.0,0.0,0.0,0.01
1700026358.468218,38846,1700026358,448579840,gx5_link,0.6690041422843933,0.1327715814113617,0.15537293255329132,0.7146078944206238,0.01,0.0,0.0,0.0,0.01,0.0,0.0,0.0,0.01,0.025182632729411125,0.021068673580884933,-0.00264732469804585,0.01,0.0,0.0,0.0,0.01,0.0,0.0,0.0,0.01,-0.419618912255764,-9.74221113783717,-0.6473278899505734,0.01,0.0,0.0,0.0,0.01,0.0,0.0,0.0,0.01
1700026358.4748595,38847,1700026358,458594816,gx5_link,0.6690863966941833,0.13284605741500854,0.1554340124130249,0.7145037055015564,0.01,0.0,0.0,0.0,0.01,0.0,0.0,0.0,0.01,0.026748154312372208,0.026014139875769615,-0.003973593935370445,0.01,0.0,0.0,0.0,0.01,0.0,0.0,0.0,0.01,-0.40700215339735146,-9.744073424577712,-0.6913957989316434,0.01,0.0,0.0,0.0,0.01,0.0,0.0,0.0,0.01
1700026358.4847593,38848,1700026358,468606464,gx5_link,0.6691473126411438,0.1329270899295807,0.15546175837516785,0.7144255638122559,0.01,0.0,0.0,0.0,0.01,0.0,0.0,0.0,0.01,0.0232900008559227,0.02398480847477913,-0.009325041435658932,0.01,0.0,0.0,0.0,0.01,0.0,0.0,0.0,0.01,-0.40090032939091325,-9.727689860531687,-0.7349091427698731,0.01,0.0,0.0,0.0,0.01,0.0,0.0,0.0,0.01
1700026358.4953098,38849,1700026358,478620160,gx5_link,0.6691782474517822,0.13303309679031372,0.15543726086616516,0.7143822312355042,0.01,0.0,0.0,0.0,0.01,0.0,0.0,0.0,0.01,0.017611926421523094,0.020685838535428047,-0.021154044196009636,0.01,0.0,0.0,0.0,0.01,0.0,0.0,0.0,0.01,-0.39497663843035696,-9.691831196165085,-0.7186922405276447,0.01,0.0,0.0,0.0,0.01,0.0,0.0,0.0,0.01
1700026358.507145,38850,1700026358,488636928,gx5_link,0.6691915392875671,0.1331784874200821,0.15536394715309143,0.7143586874008179,0.01,0.0,0.0,0.0,0.01,0.0,0.0,0.0,0.01,0.01358742918819189,0.020775996148586273,-0.03481728956103325,0.01,0.0,0.0,0.0,0.01,0.0,0.0,0.0,0.01,-0.39531891252938656,-9.700874918842315,-0.6933353156268596,0.01,0.0,0.0,0.0,0.01,0.0,0.0,0.0,0.01
1700026358.5152776,38851,1700026358,498649344,gx5_link,0.6692013144493103,0.1333652287721634,0.15526574850082397,0.7143359780311584,0.01,0.0,0.0,0.0,0.01,0.0,0.0,0.0,0.01,0.013156378641724586,0.023170601576566696,-0.04224906861782074,0.01,0.0,0.0,0.0,0.01,0.0,0.0,0.0,0.01,-0.3938595805665478,-9.757401108184457,-0.675037515457347,0.01,0.0,0.0,0.0,0.01,0.0,0.0,0.0,0.01
1700026358.5279684,38852,1700026358,508668160,gx5_link,0.6692221760749817,0.1335769146680832,0.15519027411937714,0.7142933011054993,0.01,0.0,0.0,0.0,0.01,0.0,0.0,0.0,0.01,0.01650211773812771,0.02777555026113987,-0.04211445525288582,0.01,0.0,0.0,0.0,0.01,0.0,0.0,0.0,0.01,-0.3879310673004016,-9.794600081244111,-0.6486782816462219,0.01,0.0,0.0,0.0,0.01,0.0,0.0,0.0,0.01
1700026358.5366201,38853,1700026358,518684160,gx5_link,0.669270932674408,0.1338059902191162,0.15516260266304016,0.7142108082771301,0.01,0.0,0.0,0.0,0.01,0.0,0.0,0.0,0.01,0.023586086928844452,0.03614174947142601,-0.037546899169683456,0.01,0.0,0.0,0.0,0.01,0.0,0.0,0.0,0.01,-0.3658342401741072,-9.828238731473684,-0.6119232894944027,0.01,0.0,0.0,0.0,0.01,0.0,0.0,0.0,0.01
1700026358.5452733,38854,1700026358,528696576,gx5_link,0.6693220138549805,0.1340443640947342,0.15518702566623688,0.7141128182411194,0.01,0.0,0.0,0.0,0.01,0.0,0.0,0.0,0.01,0.02464938536286354,0.046072304248809814,-0.03097628802061081,0.01,0.0,0.0,0.0,0.01,0.0,0.0,0.0,0.01,-0.34299057673588396,-9.864538709867,-0.6303760244973003,0.01,0.0,0.0,0.0,0.01,0.0,0.0,0.0,0.01
1700026358.5552146,38855,1700026358,538709760,gx5_link,0.669340968132019,0.13431599736213684,0.15521663427352905,0.7140375971794128,0.01,0.0,0.0,0.0,0.01,0.0,0.0,0.0,0.01,0.01925653964281082,0.052421510219573975,-0.03486747667193413,0.01,0.0,0.0,0.0,0.01,0.0,0.0,0.0,0.01,-0.3086408556275069,-9.843521640801429,-0.6330253699623047,0.01,0.0,0.0,0.0,0.01,0.0,0.0,0.0,0.01
1700026358.5754752,38856,1700026358,548726016,gx5_link,0.669295608997345,0.13462026417255402,0.15521588921546936,0.7140229940414429,0.01,0.0,0.0,0.0,0.01,0.0,0.0,0.0,0.01,0.005935379303991795,0.05409636348485947,-0.04430890828371048,0.01,0.0,0.0,0.0,0.01,0.0,0.0,0.0,0.01,-0.26300967938508835,-9.83057798807621,-0.6439309409886598,0.01,0.0,0.0,0.0,0.01,0.0,0.0,0.0,0.01
1700026358.5754974,38857,1700026358,558738944,gx5_link,0.6691847443580627,0.13495571911334991,0.15518489480018616,0.7140703201293945,0.01,0.0,0.0,0.0,0.01,0.0,0.0,0.0,0.01,-0.007815709337592125,0.0555020235478878,-0.05304867774248123,0.01,0.0,0.0,0.0,0.01,0.0,0.0,0.0,0.01,-0.2292540882449597,-9.860556946754455,-0.6704232265949249,0.01,0.0,0.0,0.0,0.01,0.0,0.0,0.0,0.01
1700026358.585233,38858,1700026358,568752896,gx5_link,0.6690554618835449,0.13526739180088043,0.15517154335975647,0.7141353487968445,0.01,0.0,0.0,0.0,0.01,0.0,0.0,0.0,0.01,-0.014710274524986744,0.05483942851424217,-0.04926852881908417,0.01,0.0,0.0,0.0,0.01,0.0,0.0,0.0,0.01,-0.2034127590944059,-9.877208806347847,-0.6768576435565948,0.01,0.0,0.0,0.0,0.01,0.0,0.0,0.0,0.01
1700026358.5959914,38859,1700026358,578768128,gx5_link,0.6689569354057312,0.13554024696350098,0.1551963835954666,0.714170515537262,0.01,0.0,0.0,0.0,0.01,0.0,0.0,0.0,0.01,-0.011443192139267921,0.05415292829275131,-0.036610640585422516,0.01,0.0,0.0,0.0,0.01,0.0,0.0,0.0,0.01,-0.1606879900842905,-9.880942732179165,-0.6378354736577719,0.01,0.0,0.0,0.0,0.01,0.0,0.0,0.0,0.01
1700026358.6053908,38860,1700026358,588780288,gx5_link,0.668922483921051,0.13576288521289825,0.1552935093641281,0.714139461517334,0.01,0.0,0.0,0.0,0.01,0.0,0.0,0.0,0.01,0.0005824461113661528,0.056940674781799316,-0.017306111752986908,0.01,0.0,0.0,0.0,0.01,0.0,0.0,0.0,0.01,-0.12879099589027462,-9.893580095434189,-0.6444934702422469,0.01,0.0,0.0,0.0,0.01,0.0,0.0,0.0,0.01
1700026358.6212785,38861,1700026358,598800896,gx5_link,0.6689199209213257,0.13593615591526031,0.15543855726718903,0.7140772938728333,0.01,0.0,0.0,0.0,0.01,0.0,0.0,0.0,0.01,0.007906666956841946,0.05622139200568199,-0.0015312349423766136,0.01,0.0,0.0,0.0,0.01,0.0,0.0,0.0,0.01,-0.10916255903835408,-9.866268894660472,-0.6800214413497596,0.01,0.0,0.0,0.0,0.01,0.0,0.0,0.0,0.01
1700026358.627002,38862,1700026358,608817408,gx5_link,0.6689137816429138,0.13609345257282257,0.1555788367986679,0.7140225768089294,0.01,0.0,0.0,0.0,0.01,0.0,0.0,0.0,0.01,0.007916701026260853,0.05347578600049019,0.0016520231729373336,0.01,0.0,0.0,0.0,0.01,0.0,0.0,0.0,0.01,-0.07057739688388537,-9.84305402328968,-0.686341949608177,0.01,0.0,0.0,0.0,0.01,0.0,0.0,0.0,0.01
1700026358.6347592,38863,1700026358,618829056,gx5_link,0.6688639521598816,0.13626743853092194,0.15571404993534088,0.7140065431594849,0.01,0.0,0.0,0.0,0.01,0.0,0.0,0.0,0.01,-0.0018343357369303703,0.05474879592657089,-0.000849001167807728,0.01,0.0,0.0,0.0,0.01,0.0,0.0,0.0,0.01,-0.039910122581338504,-9.84676573728919,-0.705395755776763,0.01,0.0,0.0,0.0,0.01,0.0,0.0,0.0,0.01
1700026358.6452448,38864,1700026358,628843008,gx5_link,0.6687708497047424,0.13640142977237701,0.1558179259300232,0.7140454649925232,0.01,0.0,0.0,0.0,0.01,0.0,0.0,0.0,0.01,-0.011952279135584831,0.04810953512787819,-0.0016069518169388175,0.01,0.0,0.0,0.0,0.01,0.0,0.0,0.0,0.01,-0.0227328896902618,-9.880109203964471,-0.7669823703136295,0.01,0.0,0.0,0.0,0.01,0.0,0.0,0.0,0.01
1700026358.6574717,38865,1700026358,638859520,gx5_link,0.6686684489250183,0.13647669553756714,0.15591643750667572,0.7141055464744568,0.01,0.0,0.0,0.0,0.01,0.0,0.0,0.0,0.01,-0.016904857009649277,0.03973734378814697,0.004622694570571184,0.01,0.0,0.0,0.0,0.01,0.0,0.0,0.0,0.01,-0.0038432593949750296,-9.911766909509897,-0.8073623845621943,0.01,0.0,0.0,0.0,0.01,0.0,0.0,0.0,0.01
1700026358.665251,38866,1700026358,648870656,gx5_link,0.6685847043991089,0.13649359345436096,0.15601776540279388,0.7141585946083069,0.01,0.0,0.0,0.0,0.01,0.0,0.0,0.0,0.01,-0.016741611063480377,0.0312116127461195,0.013240301050245762,0.01,0.0,0.0,0.0,0.01,0.0,0.0,0.0,0.01,0.013142865091748534,-9.849046541702746,-0.8139173591636121,0.01,0.0,0.0,0.0,0.01,0.0,0.0,0.0,0.01
1700026358.6764953,38867,1700026358,658884864,gx5_link,0.6685155630111694,0.13646212220191956,0.15608873963356018,0.7142137885093689,0.01,0.0,0.0,0.0,0.01,0.0,0.0,0.0,0.01,-0.016214799135923386,0.021572552621364594,0.016520868986845016,0.01,0.0,0.0,0.0,0.01,0.0,0.0,0.0,0.01,0.018407584111852338,-9.786588624224066,-0.7766467821724712,0.01,0.0,0.0,0.0,0.01,0.0,0.0,0.0,0.01
1700026358.6851745,38868,1700026358,668900352,gx5_link,0.6684954762458801,0.13642269372940063,0.15616056323051453,0.7142245173454285,0.01,0.0,0.0,0.0,0.01,0.0,0.0,0.0,0.01,-0.008817750960588455,0.01732335425913334,0.02005387470126152,0.01,0.0,0.0,0.0,0.01,0.0,0.0,0.0,0.01,0.014117840753879863,-9.786593300399185,-0.6962886855397373,0.01,0.0,0.0,0.0,0.01,0.0,0.0,0.0,0.01
1700026358.6947336,38869,1700026358,678912256,gx5_link,0.6684821248054504,0.13638648390769958,0.1562732458114624,0.7142191529273987,0.01,0.0,0.0,0.0,0.01,0.0,0.0,0.0,0.01,-0.006013890262693167,0.02056127041578293,0.0258523840457201,0.01,0.0,0.0,0.0,0.01,0.0,0.0,0.0,0.01,0.003535823999297281,-9.776843475279211,-0.6945285439994185,0.01,0.0,0.0,0.0,0.01,0.0,0.0,0.0,0.01
1700026358.708861,38870,1700026358,688931072,gx5_link,0.6684450507164001,0.13634604215621948,0.1563960760831833,0.7142348289489746,0.01,0.0,0.0,0.0,0.01,0.0,0.0,0.0,0.01,-0.01091841608285904,0.02274308353662491,0.025839120149612427,0.01,0.0,0.0,0.0,0.01,0.0,0.0,0.0,0.01,-0.008305942458836943,-9.750611886435747,-0.707631844265759,0.01,0.0,0.0,0.0,0.01,0.0,0.0,0.0,0.01
1700026358.7171478,38871,1700026358,698947072,gx5_link,0.6683865189552307,0.13629385828971863,0.1565096378326416,0.7142745852470398,0.01,0.0,0.0,0.0,0.01,0.0,0.0,0.0,0.01,-0.01686365157365799,0.021749455481767654,0.02520221844315529,0.01,0.0,0.0,0.0,0.01,0.0,0.0,0.0,0.01,-0.01633898968535941,-9.751060214725136,-0.6755304135408252,0.01,0.0,0.0,0.0,0.01,0.0,0.0,0.0,0.01
1700026358.725171,38872,1700026358,708959488,gx5_link,0.6683299541473389,0.13624030351638794,0.1566513478755951,0.7143067121505737,0.01,0.0,0.0,0.0,0.01,0.0,0.0,0.0,0.01,-0.01784808561205864,0.023584410548210144,0.02800699882209301,0.01,0.0,0.0,0.0,0.01,0.0,0.0,0.0,0.01,-0.01834216104269144,-9.721220956778525,-0.6733153678398579,0.01,0.0,0.0,0.0,0.01,0.0,0.0,0.0,0.01
1700026358.7371514,38873,1700026358,720972032,gx5_link,0.6682888269424438,0.13619107007980347,0.15678513050079346,0.7143251895904541,0.01,0.0,0.0,0.0,0.01,0.0,0.0,0.0,0.01,-0.013536445796489716,0.0257728211581707,0.029397912323474884,0.01,0.0,0.0,0.0,0.01,0.0,0.0,0.0,0.01,0.001907721615610353,-9.700656892177461,-0.659415145042166,0.01,0.0,0.0,0.0,0.01,0.0,0.0,0.0,0.01
1700026358.745915,38874,1700026358,730985216,gx5_link,0.6682801842689514,0.1361505091190338,0.15697073936462402,0.7143002152442932,0.01,0.0,0.0,0.0,0.01,0.0,0.0,0.0,0.01,-0.00543702207505703,0.031070459634065628,0.03868648409843445,0.01,0.0,0.0,0.0,0.01,0.0,0.0,0.0,0.01,0.030742947054374963,-9.734396664693952,-0.6681814390175044,0.01,0.0,0.0,0.0,0.01,0.0,0.0,0.0,0.01
1700026358.7584224,38875,1700026358,741000960,gx5_link,0.6682928800582886,0.13608120381832123,0.1572064906358719,0.7142497301101685,0.01,0.0,0.0,0.0,0.01,0.0,0.0,0.0,0.01,0.00025452981935814023,0.03347521275281906,0.051349446177482605,0.01,0.0,0.0,0.0,0.01,0.0,0.0,0.0,0.01,0.06210615859867539,-9.751361243498325,-0.7400666716635227,0.01,0.0,0.0,0.0,0.01,0.0,0.0,0.0,0.01
1700026358.7651808,38876,1700026358,751012608,gx5_link,0.6683130264282227,0.13596871495246887,0.15742459893226624,0.7142043113708496,0.01,0.0,0.0,0.0,0.01,0.0,0.0,0.0,0.01,0.003082107286900282,0.026202283799648285,0.05655290186405182,0.01,0.0,0.0,0.0,0.01,0.0,0.0,0.0,0.01,0.08968892002250067,-9.740290983429551,-0.7954596922572702,0.01,0.0,0.0,0.0,0.01,0.0,0.0,0.0,0.01
1700026358.7774675,38877,1700026358,761027072,gx5_link,0.6683363318443298,0.13578227162361145,0.15760214626789093,0.714178740978241,0.01,0.0,0.0,0.0,0.01,0.0,0.0,0.0,0.01,0.0005463590496219695,0.012125400826334953,0.06024850904941559,0.01,0.0,0.0,0.0,0.01,0.0,0.0,0.0,0.01,0.10192475327192806,-9.726422032552957,-0.819216780745983,0.01,0.0,0.0,0.0,0.01,0.0,0.0,0.0,0.01
1700026358.7881835,38878,1700026358,771042048,gx5_link,0.6683382987976074,0.1355448216199875,0.15768961608409882,0.7142027020454407,0.01,0.0,0.0,0.0,0.01,0.0,0.0,0.0,0.01,-0.00610022759065032,-0.005517503712326288,0.05382974073290825,0.01,0.0,0.0,0.0,0.01,0.0,0.0,0.0,0.01,0.09536107477424666,-9.688079150155186,-0.8571300395548344,0.01,0.0,0.0,0.0,0.01,0.0,0.0,0.0,0.01
1700026358.8051345,38879,1700026358,781059072,gx5_link,0.6683304905891418,0.1352630853652954,0.1576787680387497,0.7142658233642578,0.01,0.0,0.0,0.0,0.01,0.0,0.0,0.0,0.01,-0.00981511827558279,-0.02592233568429947,0.04376574605703354,0.01,0.0,0.0,0.0,0.01,0.0,0.0,0.0,0.01,0.05601212060647085,-9.660796006432175,-0.8772300668407231,0.01,0.0,0.0,0.0,0.01,0.0,0.0,0.0,0.01
1700026358.806014,38880,1700026358,791072000,gx5_link,0.668354868888855,0.1349356770515442,0.15762241184711456,0.7143173813819885,0.01,0.0,0.0,0.0,0.01,0.0,0.0,0.0,0.01,-0.004855182953178883,-0.0400397852063179,0.04138486832380295,0.01,0.0,0.0,0.0,0.01,0.0,0.0,0.0,0.01,0.007913935479300561,-9.655821725150942,-0.8448284110601991,0.01,0.0,0.0,0.0,0.01,0.0,0.0,0.0,0.01
1700026358.8200233,38881,1700026358,801088512,gx5_link,0.6684497594833374,0.13459531962871552,0.15753917396068573,0.7143111824989319,0.01,0.0,0.0,0.0,0.01,0.0,0.0,0.0,0.01,0.007907459512352943,-0.04716381058096886,0.04147695004940033,0.01,0.0,0.0,0.0,0.01,0.0,0.0,0.0,0.01,-0.04400435135872103,-9.65008055115044,-0.8118503436312079,0.01,0.0,0.0,0.0,0.01,0.0,0.0,0.0,0.01
1700026358.8258948,38882,1700026358,811098880,gx5_link,0.668582022190094,0.1342669129371643,0.1574399471282959,0.7142711877822876,0.01,0.0,0.0,0.0,0.01,0.0,0.0,0.0,0.01,0.018189428374171257,-0.05085637420415878,0.0375419482588768,0.01,0.0,0.0,0.0,0.01,0.0,0.0,0.0,0.01,-0.10058779644658788,-9.618938978433608,-0.7796336159635334,0.01,0.0,0.0,0.0,0.01,0.0,0.0,0.0,0.01
1700026358.8366518,38883,1700026358,821112832,gx5_link,0.6687394976615906,0.13400085270404816,0.1572810262441635,0.7142086625099182,0.01,0.0,0.0,0.0,0.01,0.0,0.0,0.0,0.01,0.025832563638687134,-0.051963478326797485,0.022855717688798904,0.01,0.0,0.0,0.0,0.01,0.0,0.0,0.0,0.01,-0.13417569373645818,-9.621290509995818,-0.7018186279423535,0.01,0.0,0.0,0.0,0.01,0.0,0.0,0.0,0.01
1700026358.8488588,38884,1700026358,831128064,gx5_link,0.6688873767852783,0.13380096852779388,0.15705403685569763,0.7141576409339905,0.01,0.0,0.0,0.0,0.01,0.0,0.0,0.0,0.01,0.02723289467394352,-0.051003213971853256,0.002573044504970312,0.01,0.0,0.0,0.0,0.01,0.0,0.0,0.0,0.01,-0.17631949365399777,-9.655551676037907,-0.7092949551723897,0.01,0.0,0.0,0.0,0.01,0.0,0.0,0.0,0.01
1700026358.8564706,38885,1700026358,841139968,gx5_link,0.6689820885658264,0.13366976380348206,0.15674366056919098,0.7141616344451904,0.01,0.0,0.0,0.0,0.01,0.0,0.0,0.0,0.01,0.01946333423256874,-0.05242612957954407,-0.021266961470246315,0.01,0.0,0.0,0.0,0.01,0.0,0.0,0.0,0.01,-0.20145124976309015,-9.708353291898966,-0.7284575554776936,0.01,0.0,0.0,0.0,0.01,0.0,0.0,0.0,0.01
1700026358.866335,38886,1700026358,851153152,gx5_link,0.6690439581871033,0.13358208537101746,0.1563989818096161,0.7141956090927124,0.01,0.0,0.0,0.0,0.01,0.0,0.0,0.0,0.01,0.011540246196091175,-0.04972605034708977,-0.03476583585143089,0.01,0.0,0.0,0.0,0.01,0.0,0.0,0.0,0.01,-0.22591277846042065,-9.800283387577533,-0.6682173871137201,0.01,0.0,0.0,0.0,0.01,0.0,0.0,0.0,0.01
1700026358.8782332,38887,1700026358,861168640,gx5_link,0.6690985560417175,0.13350598514080048,0.15608584880828857,0.7142271995544434,0.01,0.0,0.0,0.0,0.01,0.0,0.0,0.0,0.01,0.009478406049311161,-0.04615558311343193,-0.0335032120347023,0.01,0.0,0.0,0.0,0.01,0.0,0.0,0.0,0.01,-0.2349055564017035,-9.871378785020113,-0.6276486453600227,0.01,0.0,0.0,0.0,0.01,0.0,0.0,0.0,0.01
1700026358.8895109,38888,1700026358,871185408,gx5_link,0.6691834330558777,0.13344115018844604,0.15584149956703186,0.7142132520675659,0.01,0.0,0.0,0.0,0.01,0.0,0.0,0.0,0.01,0.01548121590167284,-0.0366358608007431,-0.0252279881387949,0.01,0.0,0.0,0.0,0.01,0.0,0.0,0.0,0.01,-0.2324851791206747,-9.899100320160388,-0.6254231513302773,0.01,0.0,0.0,0.0,0.01,0.0,0.0,0.0,0.01
1700026358.897463,38889,1700026358,881199360,gx5_link,0.6692750453948975,0.13335759937763214,0.15565723180770874,0.7141830921173096,0.01,0.0,0.0,0.0,0.01,0.0,0.0,0.0,0.01,0.01965203694999218,-0.030923273414373398,-0.015052949078381062,0.01,0.0,0.0,0.0,0.01,0.0,0.0,0.0,0.01,-0.23678784475065767,-9.910219095546006,-0.6951013754513115,0.01,0.0,0.0,0.0,0.01,0.0,0.0,0.0,0.01
1700026358.9080973,38890,1700026358,891214080,gx5_link,0.6693437695503235,0.13326005637645721,0.15547770261764526,0.7141759991645813,0.01,0.0,0.0,0.0,0.01,0.0,0.0,0.0,0.01,0.014840636402368546,-0.030486242845654488,-0.012059160508215427,0.01,0.0,0.0,0.0,0.01,0.0,0.0,0.0,0.01,-0.22094863498071207,-9.89665234248638,-0.7296459615446627,0.01,0.0,0.0,0.0,0.01,0.0,0.0,0.0,0.01
1700026358.9154775,38891,1700026358,901225216,gx5_link,0.669372022151947,0.13319054245948792,0.15529537200927734,0.7142021656036377,0.01,0.0,0.0,0.0,0.01,0.0,0.0,0.0,0.01,0.005636717192828655,-0.02625354751944542,-0.016194120049476624,0.01,0.0,0.0,0.0,0.01,0.0,0.0,0.0,0.01,-0.19626834896616638,-9.88947207559347,-0.7301521575011313,0.01,0.0,0.0,0.0,0.01,0.0,0.0,0.0,0.01
1700026358.926405,38892,1700026358,911238400,gx5_link,0.6693585515022278,0.13311795890331268,0.1551142930984497,0.7142676711082458,0.01,0.0,0.0,0.0,0.01,0.0,0.0,0.0,0.01,-0.0044995942153036594,-0.02581590600311756,-0.01757185347378254,0.01,0.0,0.0,0.0,0.01,0.0,0.0,0.0,0.01,-0.186164285314735,-9.883639716178179,-0.7282668552111834,0.01,0.0,0.0,0.0,0.01,0.0,0.0,0.0,0.01
1700026358.9381404,38893,1700026358,921254400,gx5_link,0.669320821762085,0.13301396369934082,0.154934361577034,0.7143615484237671,0.01,0.0,0.0,0.0,0.01,0.0,0.0,0.0,0.01,-0.01159719843417406,-0.03056982159614563,-0.015321890823543072,0.01,0.0,0.0,0.0,0.01,0.0,0.0,0.0,0.01,-0.18565317572113124,-9.87634488299489,-0.7602213517460972,0.01,0.0,0.0,0.0,0.01,0.0,0.0,0.0,0.01
1700026358.9458432,38894,1700026358,931265536,gx5_link,0.669276773929596,0.13286243379116058,0.15476757287979126,0.7144670486450195,0.01,0.0,0.0,0.0,0.01,0.0,0.0,0.0,0.01,-0.016967587172985077,-0.034572534263134,-0.008492307737469673,0.01,0.0,0.0,0.0,0.01,0.0,0.0,0.0,0.01,-0.19517587755434213,-9.866300458842515,-0.7389381790902465,0.01,0.0,0.0,0.0,0.01,0.0,0.0,0.0,0.01
1700026358.9566958,38895,1700026358,941278976,gx5_link,0.6692662239074707,0.1326627880334854,0.1546660214662552,0.7145360112190247,0.01,0.0,0.0,0.0,0.01,0.0,0.0,0.0,0.01,-0.01460492704063654,-0.03425787389278412,0.008279340341687202,0.01,0.0,0.0,0.0,0.01,0.0,0.0,0.0,0.01,-0.20686317354291675,-9.864386734175682,-0.6649725599735975,0.01,0.0,0.0,0.0,0.01,0.0,0.0,0.0,0.01
1700026358.9685624,38896,1700026358,951294464,gx5_link,0.6692975163459778,0.13241972029209137,0.1546533852815628,0.7145546078681946,0.01,0.0,0.0,0.0,0.01,0.0,0.0,0.0,0.01,-0.008767932653427124,-0.030505171045660973,0.026799604296684265,0.01,0.0,0.0,0.0,0.01,0.0,0.0,0.0,0.01,-0.21521370805790646,-9.827975696623325,-0.6152217830505222,0.01,0.0,0.0,0.0,0.01,0.0,0.0,0.0,0.01
1700026358.9882185,38897,1700026358,961317120,gx5_link,0.6693472862243652,0.1321704238653183,0.15472277998924255,0.7145391702651978,0.01,0.0,0.0,0.0,0.01,0.0,0.0,0.0,0.01,-0.003101005917415023,-0.022214723750948906,0.0411650612950325,0.01,0.0,0.0,0.0,0.01,0.0,0.0,0.0,0.01,-0.23422944723842665,-9.784128956112266,-0.6246073779679835,0.01,0.0,0.0,0.0,0.01,0.0,0.0,0.0,0.01
1700026358.9907584,38898,1700026358,971330816,gx5_link,0.6694030165672302,0.1318947672843933,0.15482455492019653,0.714515745639801,0.01,0.0,0.0,0.0,0.01,0.0,0.0,0.0,0.01,-0.0012572066625580192,-0.019523797556757927,0.049073029309511185,0.01,0.0,0.0,0.0,0.01,0.0,0.0,0.0,0.01,-0.25357308493275194,-9.762584063780308,-0.6554879616610706,0.01,0.0,0.0,0.0,0.01,0.0,0.0,0.0,0.01
1700026359.001083,38899,1700026358,981345792,gx5_link,0.6694484353065491,0.13164417445659637,0.1549166589975357,0.7144994735717773,0.01,0.0,0.0,0.0,0.01,0.0,0.0,0.0,0.01,-0.0008338409243151546,-0.01685246452689171,0.045818209648132324,0.01,0.0,0.0,0.0,0.01,0.0,0.0,0.0,0.01,-0.2519160201744176,-9.712163205575942,-0.6768007988028227,0.01,0.0,0.0,0.0,0.01,0.0,0.0,0.0,0.01
1700026359.0074754,38900,1700026358,991357696,gx5_link,0.6694581508636475,0.13144469261169434,0.15495389699935913,0.7145190238952637,0.01,0.0,0.0,0.0,0.01,0.0,0.0,0.0,0.01,-0.005072584841400385,-0.01641036942601204,0.031607259064912796,0.01,0.0,0.0,0.0,0.01,0.0,0.0,0.0,0.01,-0.2549441723565571,-9.664271573588252,-0.7206121757395565,0.01,0.0,0.0,0.0,0.01,0.0,0.0,0.0,0.01
1700026359.0167384,38901,1700026359,1370368,gx5_link,0.6694409847259521,0.1312929093837738,0.1549176126718521,0.7145708203315735,0.01,0.0,0.0,0.0,0.01,0.0,0.0,0.0,0.01,-0.009195229969918728,-0.01951150968670845,0.0137255247682333,0.01,0.0,0.0,0.0,0.01,0.0,0.0,0.0,0.01,-0.25718168561765925,-9.652176062124967,-0.7306165601424872,0.01,0.0,0.0,0.0,0.01,0.0,0.0,0.0,0.01
1700026359.028937,38902,1700026359,11386112,gx5_link,0.6694304943084717,0.13116194307804108,0.15483030676841736,0.714623749256134,0.01,0.0,0.0,0.0,0.01,0.0,0.0,0.0,0.01,-0.008185504004359245,-0.021961817517876625,0.0035481429658830166,0.01,0.0,0.0,0.0,0.01,0.0,0.0,0.0,0.01,-0.25504061846835535,-9.680699561297892,-0.7323826199669391,0.01,0.0,0.0,0.0,0.01,0.0,0.0,0.0,0.01
1700026359.0362635,38903,1700026359,21397248,gx5_link,0.6694483160972595,0.13103824853897095,0.15473493933677673,0.7146503329277039,0.01,0.0,0.0,0.0,0.01,0.0,0.0,0.0,0.01,-0.0008960351697169244,-0.023114249110221863,0.0021157539449632168,0.01,0.0,0.0,0.0,0.01,0.0,0.0,0.0,0.01,-0.25341851542554794,-9.715901807582378,-0.7427528420075774,0.01,0.0,0.0,0.0,0.01,0.0,0.0,0.0,0.01
1700026359.0463204,38904,1700026359,31411200,gx5_link,0.6694918870925903,0.13089510798454285,0.15463219583034515,0.7146579623222351,0.01,0.0,0.0,0.0,0.01,0.0,0.0,0.0,0.01,0.004718335811048746,-0.026723146438598633,0.00334450276568532,0.01,0.0,0.0,0.0,0.01,0.0,0.0,0.0,0.01,-0.25600619383119044,-9.72818728865981,-0.760013700344786,0.01,0.0,0.0,0.0,0.01,0.0,0.0,0.0,0.01
1700026359.0573494,38905,1700026359,41425152,gx5_link,0.6695582270622253,0.13074488937854767,0.15451990067958832,0.7146475911140442,0.01,0.0,0.0,0.0,0.01,0.0,0.0,0.0,0.01,0.010581559501588345,-0.029801489785313606,0.0032642788719385862,0.01,0.0,0.0,0.0,0.01,0.0,0.0,0.0,0.01,-0.2684043049702421,-9.725859137973188,-0.7423892693921923,0.01,0.0,0.0,0.0,0.01,0.0,0.0,0.0,0.01
1700026359.0684614,38906,1700026359,51440896,gx5_link,0.6696357727050781,0.1306009590625763,0.15439486503601074,0.714628279209137,0.01,0.0,0.0,0.0,0.01,0.0,0.0,0.0,0.01,0.011928960680961609,-0.03138722851872444,0.0007611297769472003,0.01,0.0,0.0,0.0,0.01,0.0,0.0,0.0,0.01,-0.2876524464008398,-9.753125915083288,-0.6848515649199486,0.01,0.0,0.0,0.0,0.01,0.0,0.0,0.0,0.01
1700026359.076478,38907,1700026359,61453824,gx5_link,0.6697078943252563,0.13049186766147614,0.15427778661251068,0.714605987071991,0.01,0.0,0.0,0.0,0.01,0.0,0.0,0.0,0.01,0.011783099733293056,-0.026150282472372055,-0.0026247785426676273,0.01,0.0,0.0,0.0,0.01,0.0,0.0,0.0,0.01,-0.287450804615207,-9.776402161252499,-0.652709656054154,0.01,0.0,0.0,0.0,0.01,0.0,0.0,0.0,0.01
1700026359.0894122,38908,1700026359,71469568,gx5_link,0.6697402000427246,0.13041497766971588,0.15415766835212708,0.714615523815155,0.01,0.0,0.0,0.0,0.01,0.0,0.0,0.0,0.01,0.005042679142206907,-0.02151533216238022,-0.008033081889152527,0.01,0.0,0.0,0.0,0.01,0.0,0.0,0.0,0.01,-0.2820429724886082,-9.797821381378172,-0.6785889973938465,0.01,0.0,0.0,0.0,0.01,0.0,0.0,0.0,0.01
1700026359.0967884,38909,1700026359,81480960,gx5_link,0.6697445511817932,0.13035237789154053,0.15403547883033752,0.7146492600440979,0.01,0.0,0.0,0.0,0.01,0.0,0.0,0.0,0.01,-0.0016611360479146242,-0.019892822951078415,-0.011548807844519615,0.01,0.0,0.0,0.0,0.01,0.0,0.0,0.0,0.01,-0.2882958223382942,-9.829882407027483,-0.6920061859149486,0.01,0.0,0.0,0.0,0.01,0.0,0.0,0.0,0.01
1700026359.1056137,38910,1700026359,91493888,gx5_link,0.6697544455528259,0.1302899718284607,0.15393230319023132,0.7146735787391663,0.01,0.0,0.0,0.0,0.01,0.0,0.0,0.0,0.01,-0.0013194055063650012,-0.016754277050495148,-0.00874226726591587,0.01,0.0,0.0,0.0,0.01,0.0,0.0,0.0,0.01,-0.2880083106338046,-9.875006327867508,-0.6461127420071512,0.01,0.0,0.0,0.0,0.01,0.0,0.0,0.0,0.01
1700026359.1174045,38911,1700026359,101508352,gx5_link,0.6697809100151062,0.1302192062139511,0.153891459107399,0.7146704792976379,0.01,0.0,0.0,0.0,0.01,0.0,0.0,0.0,0.01,0.00034618732752278447,-0.010356041602790356,0.0009096757275983691,0.01,0.0,0.0,0.0,0.01,0.0,0.0,0.0,0.01,-0.28170305474344637,-9.902084888929128,-0.6465758294742554,0.01,0.0,0.0,0.0,0.01,0.0,0.0,0.0,0.01
1700026359.1260412,38912,1700026359,111518976,gx5_link,0.6697952151298523,0.1301415115594864,0.1539037674665451,0.7146686911582947,0.01,0.0,0.0,0.0,0.01,0.0,0.0,0.0,0.01,-0.001207397785037756,-0.0031191555317491293,0.009317820891737938,0.01,0.0,0.0,0.0,0.01,0.0,0.0,0.0,0.01,-0.27108886787910014,-9.885014511662721,-0.6632891369313001,0.01,0.0,0.0,0.0,0.01,0.0,0.0,0.0,0.01
1700026359.1368053,38913,1700026359,121532416,gx5_link,0.669793426990509,0.1300637423992157,0.15396705269813538,0.7146707773208618,0.01,0.0,0.0,0.0,0.01,0.0,0.0,0.0,0.01,-0.00483887130394578,0.0032867228146642447,0.015753529965877533,0.01,0.0,0.0,0.0,0.01,0.0,0.0,0.0,0.01,-0.26207161308368665,-9.85387001633644,-0.647507265105471,0.01,0.0,0.0,0.0,0.01,0.0,0.0,0.0,0.01
1700026359.1486359,38914,1700026359,131547392,gx5_link,0.669763445854187,0.13000798225402832,0.15405598282814026,0.7146899104118347,0.01,0.0,0.0,0.0,0.01,0.0,0.0,0.0,0.01,-0.011580291204154491,0.009821167215704918,0.018515130504965782,0.01,0.0,0.0,0.0,0.01,0.0,0.0,0.0,0.01,-0.23681553647518155,-9.843598797690868,-0.6311386063676327,0.01,0.0,0.0,0.0,0.01,0.0,0.0,0.0,0.01
