Time,header.seq,header.stamp.secs,header.stamp.nsecs,header.frame_id,orientation.x,orientation.y,orientation.z,orientation.w,orientation_covariance_0,orientation_covariance_1,orientation_covariance_2,orientation_covariance_3,orientation_covariance_4,orientation_covariance_5,orientation_covariance_6,orientation_covariance_7,orientation_covariance_8,angular_velocity.x,angular_velocity.y,angular_velocity.z,angular_velocity_covariance_0,angular_velocity_covariance_1,angular_velocity_covariance_2,angular_velocity_covariance_3,angular_velocity_covariance_4,angular_velocity_covariance_5,angular_velocity_covariance_6,angular_velocity_covariance_7,angular_velocity_covariance_8,linear_acceleration.x,linear_acceleration.y,linear_acceleration.z,linear_acceleration_covariance_0,linear_acceleration_covariance_1,linear_acceleration_covariance_2,linear_acceleration_covariance_3,linear_acceleration_covariance_4,linear_acceleration_covariance_5,linear_acceleration_covariance_6,linear_acceleration_covariance_7,linear_acceleration_covariance_8
1700026481.3756022,51210,1700026481,134261248,sensor_wgs84,0.654765248298645,0.1359996646642685,0.17621071636676788,0.7223131656646729,2.0686509909252637e-06,0.0,0.0,0.0,2.364240456645026e-06,0.0,0.0,0.0,6.636836402503735e-05,0.016507558524608612,-0.004918530583381653,-0.009238452650606632,0.01,0.0,0.0,0.0,0.01,0.0,0.0,0.0,0.01,0.04331636428833008,0.0759572982788086,-0.026484966278076172,0.01,0.0,0.0,0.0,0.01,0.0,0.0,0.0,0.01
1700026481.3757372,51211,1700026481,144279040,sensor_wgs84,0.6548331379890442,0.13604116439819336,0.17613117396831512,0.7222632765769958,2.0686509909252637e-06,0.0,0.0,0.0,2.364240456645026e-06,0.0,0.0,0.0,6.636836402503735e-05,0.0211480725556612,-0.008125416934490204,-0.015711355954408646,0.01,0.0,0.0,0.0,0.01,0.0,0.0,0.0,0.01,0.05730322003364563,0.03844261169433594,-0.05691099166870117,0.01,0.0,0.0,0.0,0.01,0.0,0.0,0.0,0.01
1700026481.3757758,51212,1700026481,154294528,sensor_wgs84,0.6549034714698792,0.13610169291496277,0.17605260014533997,0.7222071886062622,2.057479922304992e-06,0.0,0.0,0.0,2.3502247316594727e-06,0.0,0.0,0.0,6.63131711449447e-05,0.020853234454989433,-0.0014291482511907816,-0.013759628869593143,0.01,0.0,0.0,0.0,0.01,0.0,0.0,0.0,0.01,0.04999184608459473,-0.006846427917480469,-0.0781317949295044,0.01,0.0,0.0,0.0,0.01,0.0,0.0,0.0,0.01
1700026481.375885,51213,1700026481,164311296,sensor_wgs84,0.6549882888793945,0.1361706405878067,0.1759563386440277,0.7221408486366272,2.057479922304992e-06,0.0,0.0,0.0,2.3502247316594727e-06,0.0,0.0,0.0,6.63131711449447e-05,0.027538208290934563,-0.0029099201783537865,-0.018267277628183365,0.01,0.0,0.0,0.0,0.01,0.0,0.0,0.0,0.01,0.057181715965270996,-0.01818084716796875,-0.13612794876098633,0.01,0.0,0.0,0.0,0.01,0.0,0.0,0.0,0.01
1700026481.3759325,51214,1700026481,174329600,sensor_wgs84,0.6550743579864502,0.13623496890068054,0.1758335381746292,0.7220805287361145,2.057479922304992e-06,0.0,0.0,0.0,2.3502247316594727e-06,0.0,0.0,0.0,6.63131711449447e-05,0.0274532251060009,-0.00910690613090992,-0.024142123758792877,0.01,0.0,0.0,0.0,0.01,0.0,0.0,0.0,0.01,0.05096554756164551,-0.006011962890625,-0.10577106475830078,0.01,0.0,0.0,0.0,0.01,0.0,0.0,0.0,0.01
1700026481.3759778,51215,1700026481,184344576,sensor_wgs84,0.655164897441864,0.1362960934638977,0.1757037192583084,0.7220184803009033,2.057479922304992e-06,0.0,0.0,0.0,2.3502247316594727e-06,0.0,0.0,0.0,6.63131711449447e-05,0.02544424682855606,-0.011053675785660744,-0.020984210073947906,0.01,0.0,0.0,0.0,0.01,0.0,0.0,0.0,0.01,0.027784347534179688,-0.088531494140625,0.028963565826416016,0.01,0.0,0.0,0.0,0.01,0.0,0.0,0.0,0.01
1700026481.3760345,51216,1700026481,194367232,sensor_wgs84,0.6552523970603943,0.13636301457881927,0.17558792233467102,0.7219545841217041,2.057479922304992e-06,0.0,0.0,0.0,2.3502247316594727e-06,0.0,0.0,0.0,6.63131711449447e-05,0.02469460852444172,-0.00665978342294693,-0.01974472403526306,0.01,0.0,0.0,0.0,0.01,0.0,0.0,0.0,0.01,0.017993241548538208,-0.1295480728149414,0.1002928614616394,0.01,0.0,0.0,0.0,0.01,0.0,0.0,0.0,0.01
1700026481.3760757,51217,1700026481,204381440,sensor_wgs84,0.6553134918212891,0.13643160462379456,0.1754898726940155,0.7219099402427673,2.057479922304992e-06,0.0,0.0,0.0,2.3502247316594727e-06,0.0,0.0,0.0,6.63131711449447e-05,0.014112424105405807,-0.005578806158155203,-0.020524319261312485,0.01,0.0,0.0,0.0,0.01,0.0,0.0,0.0,0.01,0.01954185962677002,-0.13574886322021484,0.0944983959197998,0.01,0.0,0.0,0.0,0.01,0.0,0.0,0.0,0.01
1700026481.3761194,51218,1700026481,214395392,sensor_wgs84,0.6553269624710083,0.13650883734226227,0.175390362739563,0.7219073176383972,2.057479922304992e-06,0.0,0.0,0.0,2.3502247316594727e-06,0.0,0.0,0.0,6.63131711449447e-05,0.00010931678116321564,-0.002070442773401737,-0.028809471055865288,0.01,0.0,0.0,0.0,0.01,0.0,0.0,0.0,0.01,0.018054872751235962,-0.1266031265258789,0.066444993019104,0.01,0.0,0.0,0.0,0.01,0.0,0.0,0.0,0.01
1700026481.3761609,51219,1700026481,224412928,sensor_wgs84,0.6552879214286804,0.1365799605846405,0.17525765299797058,0.7219615578651428,2.057479922304992e-06,0.0,0.0,0.0,2.3502247316594727e-06,0.0,0.0,0.0,6.63131711449447e-05,-0.011272840201854706,-0.016562743112444878,-0.034127186983823776,0.01,0.0,0.0,0.0,0.01,0.0,0.0,0.0,0.01,0.004120558500289917,-0.12708759307861328,0.043263256549835205,0.01,0.0,0.0,0.0,0.01,0.0,0.0,0.0,0.01
1700026481.376205,51220,1700026481,234426624,sensor_wgs84,0.6552249789237976,0.13661709427833557,0.17508424818515778,0.7220537066459656,2.057479922304992e-06,0.0,0.0,0.0,2.3502247316594727e-06,0.0,0.0,0.0,6.63131711449447e-05,-0.0234394334256649,-0.02206883206963539,-0.03358091786503792,0.01,0.0,0.0,0.0,0.01,0.0,0.0,0.0,0.01,0.006454050540924072,-0.13599586486816406,0.07613503932952881,0.01,0.0,0.0,0.0,0.01,0.0,0.0,0.0,0.01
1700026481.376242,51221,1700026481,244441344,sensor_wgs84,0.6551401615142822,0.13661810755729675,0.1749027669429779,0.7221744656562805,2.057479922304992e-06,0.0,0.0,0.0,2.3502247316594727e-06,0.0,0.0,0.0,6.63131711449447e-05,-0.026391614228487015,-0.030892005190253258,-0.025439776480197906,0.01,0.0,0.0,0.0,0.01,0.0,0.0,0.0,0.01,0.017733335494995117,-0.0758218765258789,0.09872817993164062,0.01,0.0,0.0,0.0,0.01,0.0,0.0,0.0,0.01
1700026481.3763425,51222,1700026481,254457344,sensor_wgs84,0.6550437808036804,0.13660036027431488,0.17474551498889923,0.7223032712936401,2.057479922304992e-06,0.0,0.0,0.0,2.3502247316594727e-06,0.0,0.0,0.0,6.63131711449447e-05,-0.023537296801805496,-0.030655141919851303,-0.024270812049508095,0.01,0.0,0.0,0.0,0.01,0.0,0.0,0.0,0.01,-0.009076982736587524,-0.07360363006591797,0.10489529371261597,0.01,0.0,0.0,0.0,0.01,0.0,0.0,0.0,0.01
1700026481.3765225,51223,1700026481,264469760,sensor_wgs84,0.6549579501152039,0.13655073940753937,0.1746014505624771,0.7224252820014954,2.057479922304992e-06,0.0,0.0,0.0,2.3502247316594727e-06,0.0,0.0,0.0,6.63131711449447e-05,-0.025532865896821022,-0.0262950137257576,-0.014767372980713844,0.01,0.0,0.0,0.0,0.01,0.0,0.0,0.0,0.01,-0.013042479753494263,-0.02560710906982422,0.07886707782745361,0.01,0.0,0.0,0.0,0.01,0.0,0.0,0.0,0.01
1700026481.376607,51224,1700026481,274484480,sensor_wgs84,0.6548926830291748,0.13649660348892212,0.17447809875011444,0.7225245833396912,2.057479922304992e-06,0.0,0.0,0.0,2.3502247316594727e-06,0.0,0.0,0.0,6.63131711449447e-05,-0.015356261283159256,-0.02741534262895584,-0.013120131567120552,0.01,0.0,0.0,0.0,0.01,0.0,0.0,0.0,0.01,-0.0168418288230896,-0.0042476654052734375,0.011553168296813965,0.01,0.0,0.0,0.0,0.01,0.0,0.0,0.0,0.01
1700026481.3767722,51225,1700026481,284507136,sensor_wgs84,0.6548546552658081,0.1364152729511261,0.17434589564800262,0.7226063013076782,2.057479922304992e-06,0.0,0.0,0.0,2.3502247316594727e-06,0.0,0.0,0.0,6.63131711449447e-05,-0.009184649214148521,-0.02892979420721531,-0.00930327083915472,0.01,0.0,0.0,0.0,0.01,0.0,0.0,0.0,0.01,-0.027322977781295776,-0.02825164794921875,-0.013513803482055664,0.01,0.0,0.0,0.0,0.01,0.0,0.0,0.0,0.01
1700026481.3773997,51226,1700026481,294520832,sensor_wgs84,0.6548439264297485,0.1363232284784317,0.17423562705516815,0.7226599454879761,2.057479922304992e-06,0.0,0.0,0.0,2.3502247316594727e-06,0.0,0.0,0.0,6.63131711449447e-05,-0.005270380526781082,-0.03218306601047516,-0.005655072163790464,0.01,0.0,0.0,0.0,0.01,0.0,0.0,0.0,0.01,-0.01232197880744934,-0.051848411560058594,0.01731705665588379,0.01,0.0,0.0,0.0,0.01,0.0,0.0,0.0,0.01
1700026481.3781688,51227,1700026481,304535552,sensor_wgs84,0.654853880405426,0.13622674345970154,0.17415228486061096,0.7226892113685608,2.057479922304992e-06,0.0,0.0,0.0,2.3502247316594727e-06,0.0,0.0,0.0,6.63131711449447e-05,0.002106558997184038,-0.023702794685959816,0.0041319262236356735,0.01,0.0,0.0,0.0,0.01,0.0,0.0,0.0,0.01,-0.0022774338722229004,-0.07435798645019531,-0.01231229305267334,0.01,0.0,0.0,0.0,0.01,0.0,0.0,0.0,0.01
1700026481.378238,51228,1700026481,314552064,sensor_wgs84,0.6548922061920166,0.13611799478530884,0.17408987879753113,0.7226900458335876,2.057479922304992e-06,0.0,0.0,0.0,2.3502247316594727e-06,0.0,0.0,0.0,6.63131711449447e-05,0.005530206952244043,-0.024030372500419617,0.010759344324469566,0.01,0.0,0.0,0.0,0.01,0.0,0.0,0.0,0.01,0.008425325155258179,-0.12198829650878906,-0.03866851329803467,0.01,0.0,0.0,0.0,0.01,0.0,0.0,0.0,0.01
1700026481.3782766,51229,1700026481,324564224,sensor_wgs84,0.6549408435821533,0.13599242269992828,0.17402927577495575,0.7226842045783997,2.057479922304992e-06,0.0,0.0,0.0,2.3502247316594727e-06,0.0,0.0,0.0,6.63131711449447e-05,0.005026302766054869,-0.028688957914710045,0.007670392747968435,0.01,0.0,0.0,0.0,0.01,0.0,0.0,0.0,0.01,0.03215897083282471,-0.0969228744506836,-0.1387791633605957,0.01,0.0,0.0,0.0,0.01,0.0,0.0,0.0,0.01
1700026481.3783941,51230,1700026481,334578176,sensor_wgs84,0.6549724340438843,0.1357496827840805,0.17376230657100677,0.7227655053138733,2.057479922304992e-06,0.0,0.0,0.0,2.3502247316594727e-06,0.0,0.0,0.0,6.63131711449447e-05,-0.016643330454826355,-0.0495389848947525,-0.01082201674580574,0.01,0.0,0.0,0.0,0.01,0.0,0.0,0.0,0.01,0.039531856775283813,-0.06429862976074219,-0.17430341243743896,0.01,0.0,0.0,0.0,0.01,0.0,0.0,0.0,0.01
1700026481.3784995,51231,1700026481,344593664,sensor_wgs84,0.6549190878868103,0.13559335470199585,0.17354300618171692,0.7228957414627075,2.057479922304992e-06,0.0,0.0,0.0,2.3502247316594727e-06,0.0,0.0,0.0,6.63131711449447e-05,-0.027992310002446175,-0.06025541573762894,-0.023418884724378586,0.01,0.0,0.0,0.0,0.01,0.0,0.0,0.0,0.01,0.036119818687438965,-0.053508758544921875,-0.15935122966766357,0.01,0.0,0.0,0.0,0.01,0.0,0.0,0.0,0.01
1700026481.3785498,51232,1700026481,354606336,sensor_wgs84,0.6548222899436951,0.13540613651275635,0.17325957119464874,0.7230865359306335,2.0463091225057643e-06,0.0,0.0,0.0,2.3360574371992425e-06,0.0,0.0,0.0,6.625195182438995e-05,-0.03984349966049194,-0.07316827028989792,-0.028411701321601868,0.01,0.0,0.0,0.0,0.01,0.0,0.0,0.0,0.01,0.009445995092391968,-0.05647754669189453,-0.17024743556976318,0.01,0.0,0.0,0.0,0.01,0.0,0.0,0.0,0.01
1700026481.3827233,51233,1700026481,364622080,sensor_wgs84,0.6546974182128906,0.1351802498102188,0.17295463383197784,0.7233147621154785,2.0463091225057643e-06,0.0,0.0,0.0,2.3360574371992425e-06,0.0,0.0,0.0,6.625195182438995e-05,-0.05030561238527298,-0.07565462589263916,-0.025106608867645264,0.01,0.0,0.0,0.0,0.01,0.0,0.0,0.0,0.01,-0.04405847191810608,-0.09080314636230469,-0.1408594846725464,0.01,0.0,0.0,0.0,0.01,0.0,0.0,0.0,0.01
1700026481.4018831,51234,1700026481,374644480,sensor_wgs84,0.6545636057853699,0.13492019474506378,0.1726924479007721,0.7235470414161682,2.0463091225057643e-06,0.0,0.0,0.0,2.3360574371992425e-06,0.0,0.0,0.0,6.625195182438995e-05,-0.049033310264348984,-0.06910552084445953,-0.005736147984862328,0.01,0.0,0.0,0.0,0.01,0.0,0.0,0.0,0.01,-0.10053110122680664,-0.04586029052734375,-0.009462118148803711,0.01,0.0,0.0,0.0,0.01,0.0,0.0,0.0,0.01
1700026481.4019365,51235,1700026481,384657664,sensor_wgs84,0.6544432044029236,0.1346776783466339,0.17250707745552063,0.7237453460693359,2.0463091225057643e-06,0.0,0.0,0.0,2.3360574371992425e-06,0.0,0.0,0.0,6.625195182438995e-05,-0.04383797198534012,-0.05083243548870087,-0.002851333701983094,0.01,0.0,0.0,0.0,0.01,0.0,0.0,0.0,0.01,-0.13710734248161316,0.021631240844726562,0.12460166215896606,0.01,0.0,0.0,0.0,0.01,0.0,0.0,0.0,0.01
1700026481.410858,51236,1700026481,394672384,sensor_wgs84,0.6543168425559998,0.13452491164207458,0.17242278158664703,0.7239080667495728,2.0463091225057643e-06,0.0,0.0,0.0,2.3360574371992425e-06,0.0,0.0,0.0,6.625195182438995e-05,-0.039090562611818314,-0.012923327274620533,-0.0005061158444732428,0.01,0.0,0.0,0.0,0.01,0.0,0.0,0.0,0.01,-0.13891223073005676,0.046500205993652344,0.23027712106704712,0.01,0.0,0.0,0.0,0.01,0.0,0.0,0.0,0.01
1700026481.4228005,51237,1700026481,404688896,sensor_wgs84,0.6541832685470581,0.13449591398239136,0.17245233058929443,0.7240272164344788,2.0463091225057643e-06,0.0,0.0,0.0,2.3360574371992425e-06,0.0,0.0,0.0,6.625195182438995e-05,-0.03324434533715248,0.019696656614542007,-0.0017233112594112754,0.01,0.0,0.0,0.0,0.01,0.0,0.0,0.0,0.01,-0.09577494859695435,0.06766796112060547,0.2672383189201355,0.01,0.0,0.0,0.0,0.01,0.0,0.0,0.0,0.01
1700026481.4297123,51238,1700026481,414700544,sensor_wgs84,0.6540329456329346,0.13459907472133636,0.17257636785507202,0.7241142392158508,2.0463091225057643e-06,0.0,0.0,0.0,2.3360574371992425e-06,0.0,0.0,0.0,6.625195182438995e-05,-0.02989744208753109,0.044378869235515594,-0.004392398055642843,0.01,0.0,0.0,0.0,0.01,0.0,0.0,0.0,0.01,-0.007627129554748535,0.1295480728149414,0.13884985446929932,0.01,0.0,0.0,0.0,0.01,0.0,0.0,0.0,0.01
1700026481.4401202,51239,1700026481,424714240,sensor_wgs84,0.6538583040237427,0.13477823138237,0.1726950705051422,0.7242103219032288,2.0463091225057643e-06,0.0,0.0,0.0,2.3360574371992425e-06,0.0,0.0,0.0,6.625195182438995e-05,-0.04033452272415161,0.046533387154340744,-0.019154267385601997,0.01,0.0,0.0,0.0,0.01,0.0,0.0,0.0,0.01,0.0748293399810791,0.2037200927734375,-0.06947612762451172,0.01,0.0,0.0,0.0,0.01,0.0,0.0,0.0,0.01
1700026481.452941,51240,1700026481,434730752,sensor_wgs84,0.6536632776260376,0.13499772548675537,0.17273516952991486,0.7243359088897705,2.0463091225057643e-06,0.0,0.0,0.0,2.3360574371992425e-06,0.0,0.0,0.0,6.625195182438995e-05,-0.03679158538579941,0.03389382362365723,-0.03985502943396568,0.01,0.0,0.0,0.0,0.01,0.0,0.0,0.0,0.01,0.14948102831840515,0.2542877197265625,-0.2457876205444336,0.01,0.0,0.0,0.0,0.01,0.0,0.0,0.0,0.01
1700026481.4598222,51241,1700026481,444744448,sensor_wgs84,0.6534684300422668,0.1351826786994934,0.1726371943950653,0.7245005965232849,2.0463091225057643e-06,0.0,0.0,0.0,2.3360574371992425e-06,0.0,0.0,0.0,6.625195182438995e-05,-0.04133158549666405,0.0014529108302667737,-0.057879913598299026,0.01,0.0,0.0,0.0,0.01,0.0,0.0,0.0,0.01,0.20420080423355103,0.29831790924072266,-0.3518404960632324,0.01,0.0,0.0,0.0,0.01,0.0,0.0,0.0,0.01
1700026481.4716468,51242,1700026481,454759680,sensor_wgs84,0.6533039808273315,0.13531482219696045,0.1723749041557312,0.7246866226196289,2.0463091225057643e-06,0.0,0.0,0.0,2.3360574371992425e-06,0.0,0.0,0.0,6.625195182438995e-05,-0.034321848303079605,-0.02848380245268345,-0.07163428515195847,0.01,0.0,0.0,0.0,0.01,0.0,0.0,0.0,0.01,0.23182135820388794,0.2899761199951172,-0.3303266763687134,0.01,0.0,0.0,0.0,0.01,0.0,0.0,0.0,0.01
1700026481.4898622,51243,1700026481,464783104,sensor_wgs84,0.6531879901885986,0.13537177443504333,0.1719963699579239,0.724870502948761,2.0463091225057643e-06,0.0,0.0,0.0,2.3360574371992425e-06,0.0,0.0,0.0,6.625195182438995e-05,-0.017849937081336975,-0.05188228189945221,-0.06735339015722275,0.01,0.0,0.0,0.0,0.01,0.0,0.0,0.0,0.01,0.2109510898590088,0.23914432525634766,-0.2896549701690674,0.01,0.0,0.0,0.0,0.01,0.0,0.0,0.0,0.01
1700026481.4974353,51244,1700026481,474800896,sensor_wgs84,0.6531426906585693,0.13535910844802856,0.17155252397060394,0.7250187993049622,2.0463091225057643e-06,0.0,0.0,0.0,2.3360574371992425e-06,0.0,0.0,0.0,6.625195182438995e-05,-0.010299185290932655,-0.06842460483312607,-0.0648391842842102,0.01,0.0,0.0,0.0,0.01,0.0,0.0,0.0,0.01,0.16612569987773895,0.20327281951904297,-0.17814111709594727,0.01,0.0,0.0,0.0,0.01,0.0,0.0,0.0,0.01
1700026481.5007923,51245,1700026481,484815360,sensor_wgs84,0.65315842628479,0.13529250025749207,0.17111055552959442,0.7251214981079102,2.0463091225057643e-06,0.0,0.0,0.0,2.3360574371992425e-06,0.0,0.0,0.0,6.625195182438995e-05,0.006585852243006229,-0.07281476259231567,-0.0479213185608387,0.01,0.0,0.0,0.0,0.01,0.0,0.0,0.0,0.01,0.12506121397018433,0.19103145599365234,-0.06523001194000244,0.01,0.0,0.0,0.0,0.01,0.0,0.0,0.0,0.01
1700026481.5138078,51246,1700026481,494832640,sensor_wgs84,0.6532379984855652,0.13521458208560944,0.17070835828781128,0.725159227848053,2.0463091225057643e-06,0.0,0.0,0.0,2.3360574371992425e-06,0.0,0.0,0.0,6.625195182438995e-05,0.01952326111495495,-0.06617914140224457,-0.04369121789932251,0.01,0.0,0.0,0.0,0.01,0.0,0.0,0.0,0.01,0.0823913961648941,0.13665199279785156,0.04847252368927002,0.01,0.0,0.0,0.0,0.01,0.0,0.0,0.0,0.01
1700026481.5320592,51247,1700026481,504845568,sensor_wgs84,0.6533650755882263,0.13514046370983124,0.17037521302700043,0.7251368761062622,2.0463091225057643e-06,0.0,0.0,0.0,2.3360574371992425e-06,0.0,0.0,0.0,6.625195182438995e-05,0.03851570934057236,-0.05411845073103905,-0.03003956750035286,0.01,0.0,0.0,0.0,0.01,0.0,0.0,0.0,0.01,0.03925442695617676,0.006836891174316406,0.09218013286590576,0.01,0.0,0.0,0.0,0.01,0.0,0.0,0.0,0.01
1700026481.5321276,51248,1700026481,514859264,sensor_wgs84,0.6535305976867676,0.13506734371185303,0.170131117105484,0.7250585556030273,2.0463091225057643e-06,0.0,0.0,0.0,2.3360574371992425e-06,0.0,0.0,0.0,6.625195182438995e-05,0.039455097168684006,-0.03084496781229973,-0.006793437525629997,0.01,0.0,0.0,0.0,0.01,0.0,0.0,0.0,0.01,0.018607959151268005,-0.10334968566894531,0.12673377990722656,0.01,0.0,0.0,0.0,0.01,0.0,0.0,0.0,0.01
1700026481.5430655,51249,1700026481,524875776,sensor_wgs84,0.6536945700645447,0.13498970866203308,0.17001406848430634,0.724952757358551,2.0463091225057643e-06,0.0,0.0,0.0,2.3360574371992425e-06,0.0,0.0,0.0,6.625195182438995e-05,0.034562863409519196,-0.022454170510172844,0.007362261414527893,0.01,0.0,0.0,0.0,0.01,0.0,0.0,0.0,0.01,0.0029657483100891113,-0.1360158920288086,0.07785755395889282,0.01,0.0,0.0,0.0,0.01,0.0,0.0,0.0,0.01
1700026481.5496488,51250,1700026481,534888448,sensor_wgs84,0.6538467407226562,0.13489998877048492,0.1699397712945938,0.7248495817184448,2.0463091225057643e-06,0.0,0.0,0.0,2.3360574371992425e-06,0.0,0.0,0.0,6.625195182438995e-05,0.03124009445309639,-0.024681201204657555,0.007475467398762703,0.01,0.0,0.0,0.0,0.01,0.0,0.0,0.0,0.01,0.021908774971961975,-0.12261199951171875,0.05572354793548584,0.01,0.0,0.0,0.0,0.01,0.0,0.0,0.0,0.01
1700026481.5616164,51251,1700026481,544903168,sensor_wgs84,0.6539573669433594,0.1347893327474594,0.1698634922504425,0.724788248538971,2.0463091225057643e-06,0.0,0.0,0.0,2.3360574371992425e-06,0.0,0.0,0.0,6.625195182438995e-05,0.015031056478619576,-0.029319386929273605,0.0041244616732001305,0.01,0.0,0.0,0.0,0.01,0.0,0.0,0.0,0.01,0.02143828570842743,-0.17422103881835938,-0.02845919132232666,0.01,0.0,0.0,0.0,0.01,0.0,0.0,0.0,0.01
1700026481.5896533,51252,1700026481,554926080,sensor_wgs84,0.6540189981460571,0.13461939990520477,0.16978269815444946,0.7247832417488098,2.0553914678644788e-06,0.0,0.0,0.0,2.348307999575292e-06,0.0,0.0,0.0,6.63051171499035e-05,2.5247340090572834e-05,-0.04156434163451195,0.015324873849749565,0.01,0.0,0.0,0.0,0.01,0.0,0.0,0.0,0.01,0.016360878944396973,-0.19381999969482422,-0.07268655300140381,0.01,0.0,0.0,0.0,0.01,0.0,0.0,0.0,0.01
1700026481.5897162,51253,1700026481,564943360,sensor_wgs84,0.6540431380271912,0.13438689708709717,0.16970759630203247,0.7248221039772034,2.0553914678644788e-06,0.0,0.0,0.0,2.348307999575292e-06,0.0,0.0,0.0,6.63051171499035e-05,-0.014091046527028084,-0.04776730015873909,0.01928771287202835,0.01,0.0,0.0,0.0,0.01,0.0,0.0,0.0,0.01,0.016653165221214294,-0.1382436752319336,-0.008638620376586914,0.01,0.0,0.0,0.0,0.01,0.0,0.0,0.0,0.01
1700026481.5934448,51254,1700026481,574958592,sensor_wgs84,0.6540472507476807,0.1341245472431183,0.16963720321655273,0.724883496761322,2.0553914678644788e-06,0.0,0.0,0.0,2.348307999575292e-06,0.0,0.0,0.0,6.63051171499035e-05,-0.01604381948709488,-0.05169936269521713,0.025255000218749046,0.01,0.0,0.0,0.0,0.01,0.0,0.0,0.0,0.01,0.028974637389183044,-0.0871896743774414,0.04726541042327881,0.01,0.0,0.0,0.0,0.01,0.0,0.0,0.0,0.01
1700026481.6024637,51255,1700026481,584974080,sensor_wgs84,0.6540449857711792,0.13375642895698547,0.1694619208574295,0.7249945998191833,2.0553914678644788e-06,0.0,0.0,0.0,2.348307999575292e-06,0.0,0.0,0.0,6.63051171499035e-05,-0.018369169905781746,-0.040860991925001144,0.0309875700622797,0.01,0.0,0.0,0.0,0.01,0.0,0.0,0.0,0.01,0.025131791830062866,-0.13484859466552734,0.036254167556762695,0.01,0.0,0.0,0.0,0.01,0.0,0.0,0.0,0.01
1700026481.6116111,51256,1700026481,594986752,sensor_wgs84,0.6540341377258301,0.13349680602550507,0.1694958209991455,0.725044310092926,2.0553914678644788e-06,0.0,0.0,0.0,2.348307999575292e-06,0.0,0.0,0.0,6.63051171499035e-05,-0.015086891129612923,-0.02346741408109665,0.04300898313522339,0.01,0.0,0.0,0.0,0.01,0.0,0.0,0.0,0.01,0.02862459421157837,-0.1677703857421875,-0.014479756355285645,0.01,0.0,0.0,0.0,0.01,0.0,0.0,0.0,0.01
1700026481.6217947,51257,1700026481,605001216,sensor_wgs84,0.6540540456771851,0.133231520652771,0.1696172058582306,0.725046694278717,2.0553914678644788e-06,0.0,0.0,0.0,2.348307999575292e-06,0.0,0.0,0.0,6.63051171499035e-05,-0.00612144498154521,-0.019586943089962006,0.0563434399664402,0.01,0.0,0.0,0.0,0.01,0.0,0.0,0.0,0.01,0.048232972621917725,-0.08439922332763672,-0.046245694160461426,0.01,0.0,0.0,0.0,0.01,0.0,0.0,0.0,0.01
1700026481.632683,51258,1700026481,615016960,sensor_wgs84,0.6541135311126709,0.13298551738262177,0.16976264119148254,0.7250041365623474,2.0553914678644788e-06,0.0,0.0,0.0,2.348307999575292e-06,0.0,0.0,0.0,6.63051171499035e-05,0.004055487923324108,-0.01906474307179451,0.056913964450359344,0.01,0.0,0.0,0.0,0.01,0.0,0.0,0.0,0.01,0.06076920032501221,-0.042296409606933594,-0.16809606552124023,0.01,0.0,0.0,0.0,0.01,0.0,0.0,0.0,0.01
1700026481.6484625,51259,1700026481,625028096,sensor_wgs84,0.6542034149169922,0.1327434778213501,0.16986574232578278,0.724943220615387,2.0553914678644788e-06,0.0,0.0,0.0,2.348307999575292e-06,0.0,0.0,0.0,6.63051171499035e-05,0.01467849314212799,-0.027688084170222282,0.0537559948861599,0.01,0.0,0.0,0.0,0.01,0.0,0.0,0.0,0.01,0.05052521824836731,-0.063751220703125,-0.24119961261749268,0.01,0.0,0.0,0.0,0.01,0.0,0.0,0.0,0.01
1700026481.651228,51260,1700026481,635041280,sensor_wgs84,0.654302716255188,0.1324833482503891,0.16990026831626892,0.7248931527137756,2.0553914678644788e-06,0.0,0.0,0.0,2.348307999575292e-06,0.0,0.0,0.0,6.63051171499035e-05,0.00894547812640667,-0.040879666805267334,0.03793097659945488,0.01,0.0,0.0,0.0,0.01,0.0,0.0,0.0,0.01,0.006429076194763184,-0.0695333480834961,-0.18702375888824463,0.01,0.0,0.0,0.0,0.01,0.0,0.0,0.0,0.01
1700026481.6683786,51261,1700026481,645062400,sensor_wgs84,0.6543974876403809,0.13222777843475342,0.16986601054668427,0.724862277507782,2.0553914678644788e-06,0.0,0.0,0.0,2.348307999575292e-06,0.0,0.0,0.0,6.63051171499035e-05,0.010783621110022068,-0.04449085146188736,0.020375091582536697,0.01,0.0,0.0,0.0,0.01,0.0,0.0,0.0,0.01,-0.004881024360656738,0.03139972686767578,-0.0492098331451416,0.01,0.0,0.0,0.0,0.01,0.0,0.0,0.0,0.01
1700026481.6748905,51262,1700026481,655080704,sensor_wgs84,0.6544688940048218,0.13201899826526642,0.16974285244941711,0.7248647212982178,2.0553914678644788e-06,0.0,0.0,0.0,2.348307999575292e-06,0.0,0.0,0.0,6.63051171499035e-05,0.0010466842213645577,-0.048305265605449677,0.002255608094856143,0.01,0.0,0.0,0.0,0.01,0.0,0.0,0.0,0.01,-0.02549368143081665,0.02444744110107422,0.03626251220703125,0.01,0.0,0.0,0.0,0.01,0.0,0.0,0.0,0.01
1700026481.6843894,51263,1700026481,665095680,sensor_wgs84,0.6545187830924988,0.13186532258987427,0.1695624440908432,0.724889874458313,2.0553914678644788e-06,0.0,0.0,0.0,2.348307999575292e-06,0.0,0.0,0.0,6.63051171499035e-05,0.005219507031142712,-0.04695666953921318,-0.006575310602784157,0.01,0.0,0.0,0.0,0.01,0.0,0.0,0.0,0.01,-0.07748407125473022,-0.04976654052734375,0.07185488939285278,0.01,0.0,0.0,0.0,0.01,0.0,0.0,0.0,0.01
1700026481.6921914,51264,1700026481,675110912,sensor_wgs84,0.6545546650886536,0.1317460685968399,0.1693650484085083,0.7249253392219543,2.0553914678644788e-06,0.0,0.0,0.0,2.348307999575292e-06,0.0,0.0,0.0,6.63051171499035e-05,0.0008891307516023517,-0.037697069346904755,-0.02150779776275158,0.01,0.0,0.0,0.0,0.01,0.0,0.0,0.0,0.01,-0.0746830403804779,-0.07605838775634766,0.10106086730957031,0.01,0.0,0.0,0.0,0.01,0.0,0.0,0.0,0.01
1700026481.7053049,51265,1700026481,685122816,sensor_wgs84,0.6545839309692383,0.13165105879306793,0.16916757822036743,0.7249621748924255,2.0553914678644788e-06,0.0,0.0,0.0,2.348307999575292e-06,0.0,0.0,0.0,6.63051171499035e-05,0.0014648613287135959,-0.04139984771609306,-0.015764081850647926,0.01,0.0,0.0,0.0,0.01,0.0,0.0,0.0,0.01,-0.08312821388244629,-0.05137062072753906,0.20197314023971558,0.01,0.0,0.0,0.0,0.01,0.0,0.0,0.0,0.01
1700026481.7108247,51266,1700026481,695136768,sensor_wgs84,0.6546181440353394,0.13158760964870453,0.16897746920585632,0.7249871492385864,2.0553914678644788e-06,0.0,0.0,0.0,2.348307999575292e-06,0.0,0.0,0.0,6.63051171499035e-05,0.00011064822319895029,-0.03754744306206703,-0.025095881894230843,0.01,0.0,0.0,0.0,0.01,0.0,0.0,0.0,0.01,-0.07720255851745605,-0.02764606475830078,0.11824506521224976,0.01,0.0,0.0,0.0,0.01,0.0,0.0,0.0,0.01
1700026481.723741,51267,1700026481,705153280,sensor_wgs84,0.6546180844306946,0.1315460354089737,0.16873429715633392,0.7250515222549438,2.0553914678644788e-06,0.0,0.0,0.0,2.348307999575292e-06,0.0,0.0,0.0,6.63051171499035e-05,-0.006060613784939051,-0.04187071695923805,-0.038451842963695526,0.01,0.0,0.0,0.0,0.01,0.0,0.0,0.0,0.01,-0.07242393493652344,-0.05614280700683594,0.09447604417800903,0.01,0.0,0.0,0.0,0.01,0.0,0.0,0.0,0.01
1700026481.7292752,51268,1700026481,715164416,sensor_wgs84,0.6545665860176086,0.13152213394641876,0.16842317581176758,0.7251746654510498,2.0553914678644788e-06,0.0,0.0,0.0,2.348307999575292e-06,0.0,0.0,0.0,6.63051171499035e-05,-0.017808755859732628,-0.05091848969459534,-0.051258351653814316,0.01,0.0,0.0,0.0,0.01,0.0,0.0,0.0,0.01,-0.08320081233978271,-0.10797691345214844,0.0522991418838501,0.01,0.0,0.0,0.0,0.01,0.0,0.0,0.0,0.01
1700026481.746268,51269,1700026481,725183744,sensor_wgs84,0.6544910669326782,0.1314777135848999,0.16807784140110016,0.7253308892250061,2.0553914678644788e-06,0.0,0.0,0.0,2.348307999575292e-06,0.0,0.0,0.0,6.63051171499035e-05,-0.028352294117212296,-0.05544871836900711,-0.0560564361512661,0.01,0.0,0.0,0.0,0.01,0.0,0.0,0.0,0.01,-0.10550904273986816,-0.08681583404541016,0.008759498596191406,0.01,0.0,0.0,0.0,0.01,0.0,0.0,0.0,0.01
1700026481.762176,51270,1700026481,735206400,sensor_wgs84,0.6543978452682495,0.13142234086990356,0.1677180379629135,0.7255083322525024,2.0553914678644788e-06,0.0,0.0,0.0,2.348307999575292e-06,0.0,0.0,0.0,6.63051171499035e-05,-0.030186768621206284,-0.053577523678541183,-0.05046406760811806,0.01,0.0,0.0,0.0,0.01,0.0,0.0,0.0,0.01,-0.10358235239982605,0.008462905883789062,0.12843865156173706,0.01,0.0,0.0,0.0,0.01,0.0,0.0,0.0,0.01
1700026481.7657723,51271,1700026481,745224192,sensor_wgs84,0.6542925834655762,0.1313689649105072,0.16738943755626678,0.7256888747215271,2.0553914678644788e-06,0.0,0.0,0.0,2.348307999575292e-06,0.0,0.0,0.0,6.63051171499035e-05,-0.03311726823449135,-0.04512001574039459,-0.04211379215121269,0.01,0.0,0.0,0.0,0.01,0.0,0.0,0.0,0.01,-0.10958987474441528,-0.021697998046875,0.1211017370223999,0.01,0.0,0.0,0.0,0.01,0.0,0.0,0.0,0.01
1700026481.7706106,51272,1700026481,755237376,sensor_wgs84,0.6541878581047058,0.13132600486278534,0.16713203489780426,0.7258502840995789,2.0451801963222715e-06,0.0,0.0,0.0,2.334001361978125e-06,0.0,0.0,0.0,6.62543169703024e-05,-0.033852387219667435,-0.03496190533041954,-0.034197431057691574,0.01,0.0,0.0,0.0,0.01,0.0,0.0,0.0,0.01,-0.1115477979183197,-0.04752349853515625,0.10316479206085205,0.01,0.0,0.0,0.0,0.01,0.0,0.0,0.0,0.01
1700026481.7822065,51273,1700026481,765252608,sensor_wgs84,0.6540933847427368,0.13128049671649933,0.1669662594795227,0.7259818911552429,2.0451801963222715e-06,0.0,0.0,0.0,2.334001361978125e-06,0.0,0.0,0.0,6.62543169703024e-05,-0.025322549045085907,-0.02112523838877678,-0.018935002386569977,0.01,0.0,0.0,0.0,0.01,0.0,0.0,0.0,0.01,-0.08878067135810852,-0.0657815933227539,0.022493720054626465,0.01,0.0,0.0,0.0,0.01,0.0,0.0,0.0,0.01
1700026481.7939138,51274,1700026481,775269376,sensor_wgs84,0.6540135145187378,0.13123571872711182,0.16688574850559235,0.7260803580284119,2.0451801963222715e-06,0.0,0.0,0.0,2.334001361978125e-06,0.0,0.0,0.0,6.62543169703024e-05,-0.02373257465660572,-0.012114232406020164,-0.010229512117803097,0.01,0.0,0.0,0.0,0.01,0.0,0.0,0.0,0.01,-0.03191500902175903,0.0008068084716796875,-0.026840806007385254,0.01,0.0,0.0,0.0,0.01,0.0,0.0,0.0,0.01
1700026481.8008525,51275,1700026481,785282816,sensor_wgs84,0.6539351940155029,0.13120339810848236,0.16684560477733612,0.7261659502983093,2.0451801963222715e-06,0.0,0.0,0.0,2.334001361978125e-06,0.0,0.0,0.0,6.62543169703024e-05,-0.029919834807515144,-0.0042606741189956665,-0.002312315860763192,0.01,0.0,0.0,0.0,0.01,0.0,0.0,0.0,0.01,-0.010661005973815918,0.013135910034179688,-0.0992422103881836,0.01,0.0,0.0,0.0,0.01,0.0,0.0,0.0,0.01
1700026481.8137124,51276,1700026481,795299584,sensor_wgs84,0.6538478136062622,0.13116437196731567,0.1668383628129959,0.7262533903121948,2.0451801963222715e-06,0.0,0.0,0.0,2.334001361978125e-06,0.0,0.0,0.0,6.62543169703024e-05,-0.02562953718006611,-0.0059279026463627815,0.004713898990303278,0.01,0.0,0.0,0.0,0.01,0.0,0.0,0.0,0.01,-0.0005201399326324463,0.004633903503417969,-0.11993622779846191,0.01,0.0,0.0,0.0,0.01,0.0,0.0,0.0,0.01
1700026481.8274708,51277,1700026481,805318400,sensor_wgs84,0.6537610292434692,0.13109160959720612,0.16685636341571808,0.7263404726982117,2.0451801963222715e-06,0.0,0.0,0.0,2.334001361978125e-06,0.0,0.0,0.0,6.62543169703024e-05,-0.03006153367459774,-0.008451184257864952,0.013023906387388706,0.01,0.0,0.0,0.0,0.01,0.0,0.0,0.0,0.01,0.013845443725585938,0.054312705993652344,-0.10698378086090088,0.01,0.0,0.0,0.0,0.01,0.0,0.0,0.0,0.01
1700026481.8315701,51278,1700026481,815332608,sensor_wgs84,0.6536632776260376,0.13100776076316833,0.16689200699329376,0.7264353632926941,2.0451801963222715e-06,0.0,0.0,0.0,2.334001361978125e-06,0.0,0.0,0.0,6.62543169703024e-05,-0.03078901767730713,-0.0044821943156421185,0.010272453539073467,0.01,0.0,0.0,0.0,0.01,0.0,0.0,0.0,0.01,0.009442955255508423,0.10305118560791016,-0.11951613426208496,0.01,0.0,0.0,0.0,0.01,0.0,0.0,0.0,0.01
1700026481.8480659,51279,1700026481,825353728,sensor_wgs84,0.65354984998703,0.13091501593589783,0.16691142320632935,0.7265497446060181,2.0451801963222715e-06,0.0,0.0,0.0,2.334001361978125e-06,0.0,0.0,0.0,6.62543169703024e-05,-0.03588590770959854,-0.010074496269226074,0.007962850853800774,0.01,0.0,0.0,0.0,0.01,0.0,0.0,0.0,0.01,-0.022414803504943848,0.11586284637451172,-0.14851856231689453,0.01,0.0,0.0,0.0,0.01,0.0,0.0,0.0,0.01
1700026481.854748,51280,1700026481,835371520,sensor_wgs84,0.6534595489501953,0.13068272173404694,0.16679322719573975,0.726699948310852,2.0451801963222715e-06,0.0,0.0,0.0,2.334001361978125e-06,0.0,0.0,0.0,6.62543169703024e-05,-0.03580494597554207,-0.013071044348180294,0.006518960930407047,0.01,0.0,0.0,0.0,0.01,0.0,0.0,0.0,0.01,-0.07526358962059021,0.12839221954345703,-0.1535186767578125,0.01,0.0,0.0,0.0,0.01,0.0,0.0,0.0,0.01
1700026481.8605857,51281,1700026481,845384704,sensor_wgs84,0.6533311605453491,0.13059192895889282,0.1668071299791336,0.7268285155296326,2.0451801963222715e-06,0.0,0.0,0.0,2.334001361978125e-06,0.0,0.0,0.0,6.62543169703024e-05,-0.042115021497011185,-0.010858502238988876,0.0034311283379793167,0.01,0.0,0.0,0.0,0.01,0.0,0.0,0.0,0.01,-0.0818767249584198,0.2277545928955078,-0.1497400999069214,0.01,0.0,0.0,0.0,0.01,0.0,0.0,0.0,0.01
1700026481.8722246,51282,1700026481,855399680,sensor_wgs84,0.653191864490509,0.1305556297302246,0.16682586073875427,0.7269558906555176,2.0451801963222715e-06,0.0,0.0,0.0,2.334001361978125e-06,0.0,0.0,0.0,6.62543169703024e-05,-0.03540700301527977,0.009497870691120625,-0.0031625665724277496,0.01,0.0,0.0,0.0,0.01,0.0,0.0,0.0,0.01,-0.07325750589370728,0.29991912841796875,-0.1228564977645874,0.01,0.0,0.0,0.0,0.01,0.0,0.0,0.0,0.01
1700026481.8868172,51283,1700026481,865416704,sensor_wgs84,0.6530559659004211,0.13058704137802124,0.16685986518859863,0.7270644903182983,2.0451801963222715e-06,0.0,0.0,0.0,2.334001361978125e-06,0.0,0.0,0.0,6.62543169703024e-05,-0.02596798539161682,0.020827900618314743,-0.00658771488815546,0.01,0.0,0.0,0.0,0.01,0.0,0.0,0.0,0.01,-0.03268629312515259,0.2802896499633789,-0.15668511390686035,0.01,0.0,0.0,0.0,0.01,0.0,0.0,0.0,0.01
1700026481.8899949,51284,1700026481,875429888,sensor_wgs84,0.6529447436332703,0.1306779831647873,0.1669430136680603,0.7271289229393005,2.0451801963222715e-06,0.0,0.0,0.0,2.334001361978125e-06,0.0,0.0,0.0,6.62543169703024e-05,-0.01655399240553379,0.027461763471364975,-0.0029267219360917807,0.01,0.0,0.0,0.0,0.01,0.0,0.0,0.0,0.01,0.00471949577331543,0.2598381042480469,-0.2630298137664795,0.01,0.0,0.0,0.0,0.01,0.0,0.0,0.0,0.01
1700026481.903052,51285,1700026481,885446400,sensor_wgs84,0.6528883576393127,0.13079169392585754,0.167081817984581,0.7271272540092468,2.0451801963222715e-06,0.0,0.0,0.0,2.334001361978125e-06,0.0,0.0,0.0,6.62543169703024e-05,0.0013069891138002276,0.036390673369169235,0.012158334255218506,0.01,0.0,0.0,0.0,0.01,0.0,0.0,0.0,0.01,0.04684658348560333,0.2854928970336914,-0.363397479057312,0.01,0.0,0.0,0.0,0.01,0.0,0.0,0.0,0.01
1700026481.9157727,51286,1700026481,895464960,sensor_wgs84,0.6528913378715515,0.1308877170085907,0.1672375351190567,0.7270715236663818,2.0451801963222715e-06,0.0,0.0,0.0,2.334001361978125e-06,0.0,0.0,0.0,6.62543169703024e-05,0.011634591035544872,0.030612025409936905,0.012373698875308037,0.01,0.0,0.0,0.0,0.01,0.0,0.0,0.0,0.01,0.044402629137039185,0.36194610595703125,-0.46644771099090576,0.01,0.0,0.0,0.0,0.01,0.0,0.0,0.0,0.01
1700026481.9209127,51287,1700026481,905478656,sensor_wgs84,0.6529584527015686,0.1309407353401184,0.1673487275838852,0.7269760966300964,2.0451801963222715e-06,0.0,0.0,0.0,2.334001361978125e-06,0.0,0.0,0.0,6.62543169703024e-05,0.029504666104912758,0.014589487574994564,0.0139954574406147,0.01,0.0,0.0,0.0,0.01,0.0,0.0,0.0,0.01,0.019578397274017334,0.39015769958496094,-0.3825538158416748,0.01,0.0,0.0,0.0,0.01,0.0,0.0,0.0,0.01
1700026481.9471507,51288,1700026481,915499776,sensor_wgs84,0.6530758738517761,0.13100235164165497,0.16740508377552032,0.7268465757369995,2.0451801963222715e-06,0.0,0.0,0.0,2.334001361978125e-06,0.0,0.0,0.0,6.62543169703024e-05,0.04519245773553848,0.01624820940196514,0.004726871382445097,0.01,0.0,0.0,0.0,0.01,0.0,0.0,0.0,0.01,0.003429323434829712,0.3815298080444336,-0.1409153938293457,0.01,0.0,0.0,0.0,0.01,0.0,0.0,0.0,0.01
1700026481.947264,51289,1700026481,925517568,sensor_wgs84,0.6532337665557861,0.1310819387435913,0.16747690737247467,0.7266737222671509,2.0451801963222715e-06,0.0,0.0,0.0,2.334001361978125e-06,0.0,0.0,0.0,6.62543169703024e-05,0.04816846176981926,0.03215799108147621,0.012572219595313072,0.01,0.0,0.0,0.0,0.01,0.0,0.0,0.0,0.01,0.011408388614654541,0.34032344818115234,0.08939027786254883,0.01,0.0,0.0,0.0,0.01,0.0,0.0,0.0,0.01
1700026481.95148,51290,1700026481,935530496,sensor_wgs84,0.6534207463264465,0.13121946156024933,0.1676345318555832,0.7264444828033447,2.0451801963222715e-06,0.0,0.0,0.0,2.334001361978125e-06,0.0,0.0,0.0,6.62543169703024e-05,0.06535017490386963,0.051358822733163834,0.025391671806573868,0.01,0.0,0.0,0.0,0.01,0.0,0.0,0.0,0.01,0.010162383317947388,0.26250553131103516,0.22853738069534302,0.01,0.0,0.0,0.0,0.01,0.0,0.0,0.0,0.01
1700026481.961448,51291,1700026481,945545216,sensor_wgs84,0.6536580920219421,0.13137543201446533,0.16791829466819763,0.7261371612548828,2.0343510478342355e-06,0.0,0.0,0.0,2.3205495180737227e-06,0.0,0.0,0.0,6.61989290620113e-05,0.08216403424739838,0.06296297162771225,0.04765065386891365,0.01,0.0,0.0,0.0,0.01,0.0,0.0,0.0,0.01,0.040214598178863525,0.21748828887939453,0.10882556438446045,0.01,0.0,0.0,0.0,0.01,0.0,0.0,0.0,0.01
1700026481.9739287,51292,1700026481,955561728,sensor_wgs84,0.6539621353149414,0.13150949776172638,0.16828091442584991,0.7257550358772278,2.0343510478342355e-06,0.0,0.0,0.0,2.3205495180737227e-06,0.0,0.0,0.0,6.61989290620113e-05,0.09717084467411041,0.0626324713230133,0.06561768800020218,0.01,0.0,0.0,0.0,0.01,0.0,0.0,0.0,0.01,0.05400562286376953,0.19344711303710938,0.0397028923034668,0.01,0.0,0.0,0.0,0.01,0.0,0.0,0.0,0.01
1700026481.9807174,51293,1700026481,965575168,sensor_wgs84,0.6543336510658264,0.1316039115190506,0.16864684224128723,0.7253180146217346,2.0343510478342355e-06,0.0,0.0,0.0,2.3205495180737227e-06,0.0,0.0,0.0,6.61989290620113e-05,0.10591153800487518,0.05378633737564087,0.06573816388845444,0.01,0.0,0.0,0.0,0.01,0.0,0.0,0.0,0.01,0.0579189658164978,0.1876239776611328,-0.0804067850112915,0.01,0.0,0.0,0.0,0.01,0.0,0.0,0.0,0.01
1700026481.9947624,51294,1700026481,975591680,sensor_wgs84,0.6547375917434692,0.13164088129997253,0.16891998052597046,0.7248830795288086,2.0343510478342355e-06,0.0,0.0,0.0,2.3205495180737227e-06,0.0,0.0,0.0,6.61989290620113e-05,0.10917480289936066,0.024748235940933228,0.055005598813295364,0.01,0.0,0.0,0.0,0.01,0.0,0.0,0.0,0.01,0.05277512967586517,0.12317943572998047,-0.05838727951049805,0.01,0.0,0.0,0.0,0.01,0.0,0.0,0.0,0.01
1700026482.0052087,51295,1700026481,985609984,sensor_wgs84,0.6551415920257568,0.13164761662483215,0.16909228265285492,0.7244766354560852,2.0343510478342355e-06,0.0,0.0,0.0,2.3205495180737227e-06,0.0,0.0,0.0,6.61989290620113e-05,0.1065269485116005,0.014169716276228428,0.04545699805021286,0.01,0.0,0.0,0.0,0.01,0.0,0.0,0.0,0.01,0.02649867534637451,0.01939868927001953,0.04257392883300781,0.01,0.0,0.0,0.0,0.01,0.0,0.0,0.0,0.01
1700026482.0101705,51296,1700026481,995623680,sensor_wgs84,0.6555334329605103,0.13162736594676971,0.169192835688591,0.724102258682251,2.0343510478342355e-06,0.0,0.0,0.0,2.3205495180737227e-06,0.0,0.0,0.0,6.61989290620113e-05,0.0936129242181778,0.0014022554969415069,0.040006302297115326,0.01,0.0,0.0,0.0,0.01,0.0,0.0,0.0,0.01,0.022798389196395874,-0.06865978240966797,0.05946028232574463,0.01,0.0,0.0,0.0,0.01,0.0,0.0,0.0,0.01
1700026482.0274081,51297,1700026482,5644544,sensor_wgs84,0.655891478061676,0.13158588111400604,0.16927306354045868,0.7237667441368103,2.0343510478342355e-06,0.0,0.0,0.0,2.3205495180737227e-06,0.0,0.0,0.0,6.61989290620113e-05,0.08569267392158508,0.003304828889667988,0.03913179412484169,0.01,0.0,0.0,0.0,0.01,0.0,0.0,0.0,0.01,-0.025165408849716187,-0.14745426177978516,0.016184329986572266,0.01,0.0,0.0,0.0,0.01,0.0,0.0,0.0,0.01
1700026482.0346973,51298,1700026482,15661824,sensor_wgs84,0.6562111973762512,0.13151396811008453,0.16934649646282196,0.7234727740287781,2.0343510478342355e-06,0.0,0.0,0.0,2.3205495180737227e-06,0.0,0.0,0.0,6.61989290620113e-05,0.0699554830789566,-0.0057754735462367535,0.037072308361530304,0.01,0.0,0.0,0.0,0.01,0.0,0.0,0.0,0.01,-0.05340993404388428,-0.15237998962402344,-0.03851521015167236,0.01,0.0,0.0,0.0,0.01,0.0,0.0,0.0,0.01
1700026482.0433655,51299,1700026482,25674496,sensor_wgs84,0.6564693450927734,0.13142000138759613,0.16940540075302124,0.7232417464256287,2.0343510478342355e-06,0.0,0.0,0.0,2.3205495180737227e-06,0.0,0.0,0.0,6.61989290620113e-05,0.05588069185614586,-0.015261266380548477,0.03546876087784767,0.01,0.0,0.0,0.0,0.01,0.0,0.0,0.0,0.01,-0.10296064615249634,-0.18750667572021484,-0.1361297369003296,0.01,0.0,0.0,0.0,0.01,0.0,0.0,0.0,0.01
1700026482.053799,51300,1700026482,35689216,sensor_wgs84,0.6566798090934753,0.13130444288253784,0.16943790018558502,0.7230640649795532,2.0343510478342355e-06,0.0,0.0,0.0,2.3205495180737227e-06,0.0,0.0,0.0,6.61989290620113e-05,0.04293283820152283,-0.017902035266160965,0.031144501641392708,0.01,0.0,0.0,0.0,0.01,0.0,0.0,0.0,0.01,-0.15994808077812195,-0.2101879119873047,-0.1971038579940796,0.01,0.0,0.0,0.0,0.01,0.0,0.0,0.0,0.01
1700026482.0643797,51301,1700026482,45707008,sensor_wgs84,0.6568388938903809,0.13115844130516052,0.16945433616638184,0.7229421734809875,2.0343510478342355e-06,0.0,0.0,0.0,2.3205495180737227e-06,0.0,0.0,0.0,6.61989290620113e-05,0.025733496993780136,-0.02351878583431244,0.027144312858581543,0.01,0.0,0.0,0.0,0.01,0.0,0.0,0.0,0.01,-0.22904255986213684,-0.19515228271484375,-0.1687757968902588,0.01,0.0,0.0,0.0,0.01,0.0,0.0,0.0,0.01
1700026482.0710833,51302,1700026482,55721216,sensor_wgs84,0.6569460034370422,0.13102132081985474,0.16945061087608337,0.7228705883026123,2.0343510478342355e-06,0.0,0.0,0.0,2.3205495180737227e-06,0.0,0.0,0.0,6.61989290620113e-05,0.014234604313969612,-0.019893789663910866,0.022696711122989655,0.01,0.0,0.0,0.0,0.01,0.0,0.0,0.0,0.01,-0.263993501663208,-0.1501607894897461,-0.07913661003112793,0.01,0.0,0.0,0.0,0.01,0.0,0.0,0.0,0.01
1700026482.0838017,51303,1700026482,65737728,sensor_wgs84,0.6569913625717163,0.1309245079755783,0.1694498062133789,0.7228471636772156,2.0343510478342355e-06,0.0,0.0,0.0,2.3205495180737227e-06,0.0,0.0,0.0,6.61989290620113e-05,0.00013071810826659203,-0.013140724040567875,0.007066447287797928,0.01,0.0,0.0,0.0,0.01,0.0,0.0,0.0,0.01,-0.2974594831466675,-0.10410213470458984,-0.03467750549316406,0.01,0.0,0.0,0.0,0.01,0.0,0.0,0.0,0.01
1700026482.094566,51304,1700026482,75754496,sensor_wgs84,0.6569523215293884,0.1309177428483963,0.16946540772914886,0.7228801846504211,2.0343510478342355e-06,0.0,0.0,0.0,2.3205495180737227e-06,0.0,0.0,0.0,6.61989290620113e-05,-0.022683752700686455,0.010986781679093838,-0.006014246493577957,0.01,0.0,0.0,0.0,0.01,0.0,0.0,0.0,0.01,-0.2933330237865448,-0.020239830017089844,-0.010329842567443848,0.01,0.0,0.0,0.0,0.01,0.0,0.0,0.0,0.01
1700026482.1043618,51305,1700026482,85767936,sensor_wgs84,0.6568073630332947,0.13091571629047394,0.16939443349838257,0.723028838634491,2.0343510478342355e-06,0.0,0.0,0.0,2.3205495180737227e-06,0.0,0.0,0.0,6.61989290620113e-05,-0.03673265874385834,0.03440994396805763,-0.02728295512497425,0.01,0.0,0.0,0.0,0.01,0.0,0.0,0.0,0.01,-0.2790883779525757,-0.015504837036132812,0.07492196559906006,0.01,0.0,0.0,0.0,0.01,0.0,0.0,0.0,0.01
1700026482.1169312,51306,1700026482,95788288,sensor_wgs84,0.6566110253334045,0.1311630755662918,0.16948609054088593,0.7231408357620239,2.0343510478342355e-06,0.0,0.0,0.0,2.3205495180737227e-06,0.0,0.0,0.0,6.61989290620113e-05,-0.03119031712412834,0.0707402154803276,-0.023601850494742393,0.01,0.0,0.0,0.0,0.01,0.0,0.0,0.0,0.01,-0.2402241826057434,-0.008246421813964844,0.074013352394104,0.01,0.0,0.0,0.0,0.01,0.0,0.0,0.0,0.01
1700026482.1259053,51307,1700026482,105806592,sensor_wgs84,0.6563990712165833,0.1315188705921173,0.16970482468605042,0.7232173681259155,2.0343510478342355e-06,0.0,0.0,0.0,2.3205495180737227e-06,0.0,0.0,0.0,6.61989290620113e-05,-0.0282189529389143,0.10018141567707062,-0.021044328808784485,0.01,0.0,0.0,0.0,0.01,0.0,0.0,0.0,0.01,-0.15927782654762268,0.0697641372680664,0.01675856113433838,0.01,0.0,0.0,0.0,0.01,0.0,0.0,0.0,0.01
1700026482.130054,51308,1700026482,115819264,sensor_wgs84,0.6561955809593201,0.13196255266666412,0.17003826797008514,0.7232429385185242,2.0343510478342355e-06,0.0,0.0,0.0,2.3205495180737227e-06,0.0,0.0,0.0,6.61989290620113e-05,-0.024280110374093056,0.1286306530237198,-0.012368488125503063,0.01,0.0,0.0,0.0,0.01,0.0,0.0,0.0,0.01,-0.05167168378829956,0.2247638702392578,0.0053528547286987305,0.01,0.0,0.0,0.0,0.01,0.0,0.0,0.0,0.01
1700026482.14218,51309,1700026482,125833728,sensor_wgs84,0.6560152769088745,0.1325119584798813,0.17047017812728882,0.7232043147087097,2.0343510478342355e-06,0.0,0.0,0.0,2.3205495180737227e-06,0.0,0.0,0.0,6.61989290620113e-05,-0.0073689669370651245,0.1567346304655075,-0.01471585314720869,0.01,0.0,0.0,0.0,0.01,0.0,0.0,0.0,0.01,0.08012440800666809,0.2922096252441406,-0.014339208602905273,0.01,0.0,0.0,0.0,0.01,0.0,0.0,0.0,0.01
1700026482.1562293,51310,1700026482,135851008,sensor_wgs84,0.6558687686920166,0.13315002620220184,0.17095224559307098,0.7231062054634094,2.0343510478342355e-06,0.0,0.0,0.0,2.3205495180737227e-06,0.0,0.0,0.0,6.61989290620113e-05,0.0067135849967598915,0.17197932302951813,-0.017078300938010216,0.01,0.0,0.0,0.0,0.01,0.0,0.0,0.0,0.01,0.19579842686653137,0.35022640228271484,-0.12554490566253662,0.01,0.0,0.0,0.0,0.01,0.0,0.0,0.0,0.01
1700026482.1640003,51311,1700026482,145864960,sensor_wgs84,0.6557607054710388,0.13380713760852814,0.17139817774295807,0.7229774594306946,2.0238656338833575e-06,0.0,0.0,0.0,2.307873975107363e-06,0.0,0.0,0.0,6.61521084295881e-05,0.02059289813041687,0.15415315330028534,-0.026722446084022522,0.01,0.0,0.0,0.0,0.01,0.0,0.0,0.0,0.01,0.21042847633361816,0.3291788101196289,-0.2521158456802368,0.01,0.0,0.0,0.0,0.01,0.0,0.0,0.0,0.01
1700026482.1728714,51312,1700026482,155880960,sensor_wgs84,0.6556927561759949,0.13443133234977722,0.17170901596546173,0.722849428653717,2.0238656338833575e-06,0.0,0.0,0.0,2.307873975107363e-06,0.0,0.0,0.0,6.61521084295881e-05,0.024374503642320633,0.11773907393217087,-0.043593257665634155,0.01,0.0,0.0,0.0,0.01,0.0,0.0,0.0,0.01,0.21762016415596008,0.3174858093261719,-0.30465149879455566,0.01,0.0,0.0,0.0,0.01,0.0,0.0,0.0,0.01
1700026482.184074,51313,1700026482,165897472,sensor_wgs84,0.6556667685508728,0.13500793278217316,0.17185279726982117,0.722731351852417,2.0238656338833575e-06,0.0,0.0,0.0,2.307873975107363e-06,0.0,0.0,0.0,6.61521084295881e-05,0.030825356021523476,0.0882437452673912,-0.06459910422563553,0.01,0.0,0.0,0.0,0.01,0.0,0.0,0.0,0.01,0.24431872367858887,0.35867786407470703,-0.22475552558898926,0.01,0.0,0.0,0.0,0.01,0.0,0.0,0.0,0.01
1700026482.1907735,51314,1700026482,175910656,sensor_wgs84,0.6556805372238159,0.13555613160133362,0.17181789875030518,0.7226245403289795,2.0238656338833575e-06,0.0,0.0,0.0,2.307873975107363e-06,0.0,0.0,0.0,6.61521084295881e-05,0.036114651709795,0.0675986036658287,-0.08439386636018753,0.01,0.0,0.0,0.0,0.01,0.0,0.0,0.0,0.01,0.2689684331417084,0.34713172912597656,-0.1881847381591797,0.01,0.0,0.0,0.0,0.01,0.0,0.0,0.0,0.01
1700026482.207874,51315,1700026482,185931008,sensor_wgs84,0.6557092666625977,0.13608866930007935,0.1716449111700058,0.722539484500885,2.0238656338833575e-06,0.0,0.0,0.0,2.307873975107363e-06,0.0,0.0,0.0,6.61521084295881e-05,0.043087247759103775,0.048505622893571854,-0.0967603325843811,0.01,0.0,0.0,0.0,0.01,0.0,0.0,0.0,0.01,0.297736257314682,0.266082763671875,-0.15858256816864014,0.01,0.0,0.0,0.0,0.01,0.0,0.0,0.0,0.01
1700026482.216257,51316,1700026482,195949312,sensor_wgs84,0.6557926535606384,0.13657912611961365,0.1713876873254776,0.7224323153495789,2.0238656338833575e-06,0.0,0.0,0.0,2.307873975107363e-06,0.0,0.0,0.0,6.61521084295881e-05,0.05769534781575203,0.022826582193374634,-0.09084845334291458,0.01,0.0,0.0,0.0,0.01,0.0,0.0,0.0,0.01,0.3190241754055023,0.2032146453857422,-0.24859201908111572,0.01,0.0,0.0,0.0,0.01,0.0,0.0,0.0,0.01
1700026482.2310112,51317,1700026482,205961984,sensor_wgs84,0.6559442281723022,0.1369919627904892,0.17106923460960388,0.7222920656204224,2.0238656338833575e-06,0.0,0.0,0.0,2.307873975107363e-06,0.0,0.0,0.0,6.61521084295881e-05,0.06995604932308197,0.003040421288460493,-0.08475861698389053,0.01,0.0,0.0,0.0,0.01,0.0,0.0,0.0,0.01,0.25696682929992676,0.100738525390625,-0.3169448971748352,0.01,0.0,0.0,0.0,0.01,0.0,0.0,0.0,0.01
1700026482.2334583,51318,1700026482,215976448,sensor_wgs84,0.6561825275421143,0.13732865452766418,0.17070533335208893,0.7220976948738098,2.0238656338833575e-06,0.0,0.0,0.0,2.307873975107363e-06,0.0,0.0,0.0,6.61521084295881e-05,0.09080695360898972,-0.0022634402848780155,-0.08590415120124817,0.01,0.0,0.0,0.0,0.01,0.0,0.0,0.0,0.01,0.32105955481529236,0.186370849609375,-0.32121795415878296,0.01,0.0,0.0,0.0,0.01,0.0,0.0,0.0,0.01
1700026482.2441597,51319,1700026482,225993472,sensor_wgs84,0.6565059423446655,0.1376085877418518,0.1702953428030014,0.7218471765518188,2.0238656338833575e-06,0.0,0.0,0.0,2.307873975107363e-06,0.0,0.0,0.0,6.61521084295881e-05,0.10800270736217499,-0.01980607956647873,-0.07082466036081314,0.01,0.0,0.0,0.0,0.01,0.0,0.0,0.0,0.01,0.25782135128974915,0.1297006607055664,-0.17819160223007202,0.01,0.0,0.0,0.0,0.01,0.0,0.0,0.0,0.01
1700026482.251773,51320,1700026482,236007424,sensor_wgs84,0.6568856835365295,0.1378219574689865,0.16987323760986328,0.7215604782104492,2.0238656338833575e-06,0.0,0.0,0.0,2.307873975107363e-06,0.0,0.0,0.0,6.61521084295881e-05,0.11506745219230652,-0.039479371160268784,-0.06369339674711227,0.01,0.0,0.0,0.0,0.01,0.0,0.0,0.0,0.01,0.18997451663017273,0.04556846618652344,-0.15873122215270996,0.01,0.0,0.0,0.0,0.01,0.0,0.0,0.0,0.01
1700026482.265289,51321,1700026482,246023168,sensor_wgs84,0.6573134064674377,0.13798829913139343,0.1694779098033905,0.7212320566177368,2.0238656338833575e-06,0.0,0.0,0.0,2.307873975107363e-06,0.0,0.0,0.0,6.61521084295881e-05,0.12480597198009491,-0.03165176138281822,-0.04766559600830078,0.01,0.0,0.0,0.0,0.01,0.0,0.0,0.0,0.01,0.10991493612527847,-0.028898239135742188,-0.02480250597000122,0.01,0.0,0.0,0.0,0.01,0.0,0.0,0.0,0.01
1700026482.2751613,51322,1700026482,256039424,sensor_wgs84,0.6577728390693665,0.13811469078063965,0.16915494203567505,0.7208646535873413,2.0238656338833575e-06,0.0,0.0,0.0,2.307873975107363e-06,0.0,0.0,0.0,6.61521084295881e-05,0.13089707493782043,-0.02606160007417202,-0.03285400941967964,0.01,0.0,0.0,0.0,0.01,0.0,0.0,0.0,0.01,0.08565676212310791,-0.10926151275634766,0.09269213676452637,0.01,0.0,0.0,0.0,0.01,0.0,0.0,0.0,0.01
1700026482.283727,51323,1700026482,266052096,sensor_wgs84,0.6582404375076294,0.13821278512477875,0.16894042491912842,0.7204692363739014,2.0238656338833575e-06,0.0,0.0,0.0,2.307873975107363e-06,0.0,0.0,0.0,6.61521084295881e-05,0.12830772995948792,-0.012811443768441677,-0.004580684006214142,0.01,0.0,0.0,0.0,0.01,0.0,0.0,0.0,0.01,-0.006851449608802795,-0.11966514587402344,0.06942492723464966,0.01,0.0,0.0,0.0,0.01,0.0,0.0,0.0,0.01
1700026482.2983608,51324,1700026482,276071936,sensor_wgs84,0.6587042212486267,0.13829199969768524,0.1687956005334854,0.7200639843940735,2.0238656338833575e-06,0.0,0.0,0.0,2.307873975107363e-06,0.0,0.0,0.0,6.61521084295881e-05,0.12039965391159058,-0.012441346421837807,-0.006908390671014786,0.01,0.0,0.0,0.0,0.01,0.0,0.0,0.0,0.01,-0.06866681575775146,-0.08258247375488281,0.05637699365615845,0.01,0.0,0.0,0.0,0.01,0.0,0.0,0.0,0.01
1700026482.3046086,51325,1700026482,286088704,sensor_wgs84,0.6591554880142212,0.13839592039585114,0.16867868602275848,0.719658374786377,2.0238656338833575e-06,0.0,0.0,0.0,2.307873975107363e-06,0.0,0.0,0.0,6.61521084295881e-05,0.12425746023654938,0.004676422569900751,-0.00220877374522388,0.01,0.0,0.0,0.0,0.01,0.0,0.0,0.0,0.01,-0.13784581422805786,-0.10657691955566406,0.2702931761741638,0.01,0.0,0.0,0.0,0.01,0.0,0.0,0.0,0.01
1700026482.3134525,51326,1700026482,296100864,sensor_wgs84,0.6595904231071472,0.13855604827404022,0.16863560676574707,0.7192391157150269,2.0238656338833575e-06,0.0,0.0,0.0,2.307873975107363e-06,0.0,0.0,0.0,6.61521084295881e-05,0.12674638628959656,0.028695959597826004,0.005648799240589142,0.01,0.0,0.0,0.0,0.01,0.0,0.0,0.0,0.01,-0.20191553235054016,-0.18980979919433594,0.3567183017730713,0.01,0.0,0.0,0.0,0.01,0.0,0.0,0.0,0.01
1700026482.3245535,51327,1700026482,306115072,sensor_wgs84,0.6600042581558228,0.13879196345806122,0.1687372922897339,0.7187899351119995,2.0238656338833575e-06,0.0,0.0,0.0,2.307873975107363e-06,0.0,0.0,0.0,6.61521084295881e-05,0.12351898849010468,0.061897870153188705,0.020011192187666893,0.01,0.0,0.0,0.0,0.01,0.0,0.0,0.0,0.01,-0.222117617726326,-0.18804931640625,0.32382452487945557,0.01,0.0,0.0,0.0,0.01,0.0,0.0,0.0,0.01
1700026482.3335576,51328,1700026482,316131072,sensor_wgs84,0.6604180932044983,0.13906094431877136,0.16898375749588013,0.7182997465133667,2.0238656338833575e-06,0.0,0.0,0.0,2.307873975107363e-06,0.0,0.0,0.0,6.61521084295881e-05,0.1290387064218521,0.08292292803525925,0.03458273038268089,0.01,0.0,0.0,0.0,0.01,0.0,0.0,0.0,0.01,-0.23580829799175262,-0.1291046142578125,0.2733394503593445,0.01,0.0,0.0,0.0,0.01,0.0,0.0,0.0,0.01
1700026482.3406265,51329,1700026482,326144000,sensor_wgs84,0.6608625650405884,0.1393900215625763,0.16935446858406067,0.7177397012710571,2.0238656338833575e-06,0.0,0.0,0.0,2.307873975107363e-06,0.0,0.0,0.0,6.61521084295881e-05,0.1456492394208908,0.10860416293144226,0.051152534782886505,0.01,0.0,0.0,0.0,0.01,0.0,0.0,0.0,0.01,-0.26480334997177124,-0.12407302856445312,0.3066341280937195,0.01,0.0,0.0,0.0,0.01,0.0,0.0,0.0,0.01
1700026482.3537092,51330,1700026482,336159744,sensor_wgs84,0.6613895893096924,0.13966132700443268,0.169708251953125,0.7171176671981812,2.0238656338833575e-06,0.0,0.0,0.0,2.307873975107363e-06,0.0,0.0,0.0,6.61521084295881e-05,0.1745973825454712,0.1287480741739273,0.06578905880451202,0.01,0.0,0.0,0.0,0.01,0.0,0.0,0.0,0.01,-0.24006406962871552,-0.0699300765991211,0.2875027656555176,0.01,0.0,0.0,0.0,0.01,0.0,0.0,0.0,0.01
1700026482.3722441,51331,1700026482,346178048,sensor_wgs84,0.6619911193847656,0.14007334411144257,0.17033061385154724,0.7163342237472534,2.0124612314725236e-06,0.0,0.0,0.0,2.2955961286715362e-06,0.0,0.0,0.0,6.609350750222485e-05,0.19991041719913483,0.15105022490024567,0.08676553517580032,0.01,0.0,0.0,0.0,0.01,0.0,0.0,0.0,0.01,-0.3349548876285553,-0.13315868377685547,0.27640074491500854,0.01,0.0,0.0,0.0,0.01,0.0,0.0,0.0,0.01
1700026482.3722727,51332,1700026482,356190208,sensor_wgs84,0.6627074480056763,0.14051559567451477,0.17109064757823944,0.7154035568237305,2.0124612314725236e-06,0.0,0.0,0.0,2.2955961286715362e-06,0.0,0.0,0.0,6.609350750222485e-05,0.2340703010559082,0.18499435484409332,0.11536356061697006,0.01,0.0,0.0,0.0,0.01,0.0,0.0,0.0,0.01,-0.3751060664653778,-0.09654617309570312,0.3471069037914276,0.01,0.0,0.0,0.0,0.01,0.0,0.0,0.0,0.01
1700026482.387939,51333,1700026482,366210304,sensor_wgs84,0.6635007262229919,0.14104220271110535,0.1720116287469864,0.7143430113792419,2.0124612314725236e-06,0.0,0.0,0.0,2.2955961286715362e-06,0.0,0.0,0.0,6.609350750222485e-05,0.2589972913265228,0.22211530804634094,0.1273198425769806,0.01,0.0,0.0,0.0,0.01,0.0,0.0,0.0,0.01,-0.33334028720855713,0.051674842834472656,0.4407331645488739,0.01,0.0,0.0,0.0,0.01,0.0,0.0,0.0,0.01
1700026482.3941698,51334,1700026482,376227328,sensor_wgs84,0.6643155217170715,0.14174453914165497,0.17305798828601837,0.7131930589675903,2.0124612314725236e-06,0.0,0.0,0.0,2.2955961286715362e-06,0.0,0.0,0.0,6.609350750222485e-05,0.27299898862838745,0.26499634981155396,0.11490853130817413,0.01,0.0,0.0,0.0,0.01,0.0,0.0,0.0,0.01,-0.2499903440475464,0.11582565307617188,0.45085108280181885,0.01,0.0,0.0,0.0,0.01,0.0,0.0,0.0,0.01
1700026482.399373,51335,1700026482,386239488,sensor_wgs84,0.6651504039764404,0.1426243931055069,0.17419792711734772,0.7119609713554382,2.0124612314725236e-06,0.0,0.0,0.0,2.2955961286715362e-06,0.0,0.0,0.0,6.609350750222485e-05,0.28381145000457764,0.29728978872299194,0.10679568350315094,0.01,0.0,0.0,0.0,0.01,0.0,0.0,0.0,0.01,-0.15870293974876404,0.0658111572265625,0.17701607942581177,0.01,0.0,0.0,0.0,0.01,0.0,0.0,0.0,0.01
1700026482.412065,51336,1700026482,396253696,sensor_wgs84,0.6659698486328125,0.14359059929847717,0.17531830072402954,0.7107246518135071,2.0124612314725236e-06,0.0,0.0,0.0,2.2955961286715362e-06,0.0,0.0,0.0,6.609350750222485e-05,0.2827806770801544,0.2850203216075897,0.08287231624126434,0.01,0.0,0.0,0.0,0.01,0.0,0.0,0.0,0.01,-0.08897408843040466,0.09868335723876953,-0.21321123838424683,0.01,0.0,0.0,0.0,0.01,0.0,0.0,0.0,0.01
1700026482.423472,51337,1700026482,406269696,sensor_wgs84,0.6667340993881226,0.1445762664079666,0.1762346625328064,0.709580659866333,2.0124612314725236e-06,0.0,0.0,0.0,2.2955961286715362e-06,0.0,0.0,0.0,6.609350750222485e-05,0.2535345256328583,0.2423654943704605,0.03672650828957558,0.01,0.0,0.0,0.0,0.01,0.0,0.0,0.0,0.01,-0.04158896207809448,0.15481948852539062,-0.5125482082366943,0.01,0.0,0.0,0.0,0.01,0.0,0.0,0.0,0.01
1700026482.4298422,51338,1700026482,416282368,sensor_wgs84,0.667426347732544,0.1455339640378952,0.17680378258228302,0.708591878414154,2.0124612314725236e-06,0.0,0.0,0.0,2.2955961286715362e-06,0.0,0.0,0.0,6.609350750222485e-05,0.24299749732017517,0.18740631639957428,-0.01661856286227703,0.01,0.0,0.0,0.0,0.01,0.0,0.0,0.0,0.01,-0.03107115626335144,0.1821269989013672,-0.6191880702972412,0.01,0.0,0.0,0.0,0.01,0.0,0.0,0.0,0.01
1700026482.4426703,51339,1700026482,426297088,sensor_wgs84,0.668092668056488,0.14646056294441223,0.17702047526836395,0.7077183723449707,2.0124612314725236e-06,0.0,0.0,0.0,2.2955961286715362e-06,0.0,0.0,0.0,6.609350750222485e-05,0.23318524658679962,0.1430802196264267,-0.0620586983859539,0.01,0.0,0.0,0.0,0.01,0.0,0.0,0.0,0.01,-0.07765519618988037,0.09031391143798828,-0.2490546703338623,0.01,0.0,0.0,0.0,0.01,0.0,0.0,0.0,0.01
1700026482.456066,51340,1700026482,436315136,sensor_wgs84,0.6687555909156799,0.1473814845085144,0.177044078707695,0.7068946957588196,2.0124612314725236e-06,0.0,0.0,0.0,2.2955961286715362e-06,0.0,0.0,0.0,6.609350750222485e-05,0.2382725328207016,0.12485654652118683,-0.08253329992294312,0.01,0.0,0.0,0.0,0.01,0.0,0.0,0.0,0.01,-0.08601570129394531,0.009715080261230469,-0.01822531223297119,0.01,0.0,0.0,0.0,0.01,0.0,0.0,0.0,0.01
1700026482.459962,51341,1700026482,446327040,sensor_wgs84,0.6693901419639587,0.14834284782409668,0.1769873946905136,0.7061067223548889,2.0124612314725236e-06,0.0,0.0,0.0,2.2955961286715362e-06,0.0,0.0,0.0,6.609350750222485e-05,0.2204025685787201,0.13222244381904602,-0.09154322743415833,0.01,0.0,0.0,0.0,0.01,0.0,0.0,0.0,0.01,-0.06443670392036438,-0.07207202911376953,0.10160434246063232,0.01,0.0,0.0,0.0,0.01,0.0,0.0,0.0,0.01
1700026482.478629,51342,1700026482,456347392,sensor_wgs84,0.6699684262275696,0.14934028685092926,0.17696018517017365,0.7053544521331787,2.0124612314725236e-06,0.0,0.0,0.0,2.2955961286715362e-06,0.0,0.0,0.0,6.609350750222485e-05,0.22171565890312195,0.1428220272064209,-0.08118472993373871,0.01,0.0,0.0,0.0,0.01,0.0,0.0,0.0,0.01,-0.056699663400650024,-0.14488506317138672,0.11792781949043274,0.01,0.0,0.0,0.0,0.01,0.0,0.0,0.0,0.01
1700026482.485216,51343,1700026482,466364672,sensor_wgs84,0.6705400943756104,0.15032199025154114,0.17699390649795532,0.7045938372612,2.0124612314725236e-06,0.0,0.0,0.0,2.2955961286715362e-06,0.0,0.0,0.0,6.609350750222485e-05,0.2131885588169098,0.1433688998222351,-0.08004989475011826,0.01,0.0,0.0,0.0,0.01,0.0,0.0,0.0,0.01,-0.07132977247238159,-0.09746551513671875,-0.007124543190002441,0.01,0.0,0.0,0.0,0.01,0.0,0.0,0.0,0.01
1700026482.494774,51344,1700026482,476378368,sensor_wgs84,0.6710817217826843,0.151281476020813,0.1769985407590866,0.7038713693618774,2.0124612314725236e-06,0.0,0.0,0.0,2.2955961286715362e-06,0.0,0.0,0.0,6.609350750222485e-05,0.1985204964876175,0.13195021450519562,-0.09387685358524323,0.01,0.0,0.0,0.0,0.01,0.0,0.0,0.0,0.01,-0.057207196950912476,-0.02158069610595703,-0.04332965612411499,0.01,0.0,0.0,0.0,0.01,0.0,0.0,0.0,0.01
1700026482.5049386,51345,1700026482,486392832,sensor_wgs84,0.671548068523407,0.15223091840744019,0.17689771950244904,0.7032468914985657,2.0124612314725236e-06,0.0,0.0,0.0,2.2955961286715362e-06,0.0,0.0,0.0,6.609350750222485e-05,0.1759243607521057,0.11500252038240433,-0.11511392891407013,0.01,0.0,0.0,0.0,0.01,0.0,0.0,0.0,0.01,-0.05554647743701935,-0.07055950164794922,0.10283342003822327,0.01,0.0,0.0,0.0,0.01,0.0,0.0,0.0,0.01
1700026482.5150466,51346,1700026482,496408576,sensor_wgs84,0.6719352006912231,0.15316060185432434,0.17676296830177307,0.702708899974823,2.0124612314725236e-06,0.0,0.0,0.0,2.2955961286715362e-06,0.0,0.0,0.0,6.609350750222485e-05,0.14807039499282837,0.11531232297420502,-0.10901521146297455,0.01,0.0,0.0,0.0,0.01,0.0,0.0,0.0,0.01,-0.07524803280830383,-0.15093517303466797,0.3023425340652466,0.01,0.0,0.0,0.0,0.01,0.0,0.0,0.0,0.01
1700026482.523463,51347,1700026482,506421248,sensor_wgs84,0.6722496151924133,0.15405458211898804,0.17667262256145477,0.7022353410720825,2.0124612314725236e-06,0.0,0.0,0.0,2.2955961286715362e-06,0.0,0.0,0.0,6.609350750222485e-05,0.13394643366336823,0.12412725389003754,-0.09863991290330887,0.01,0.0,0.0,0.0,0.01,0.0,0.0,0.0,0.01,-0.030619904398918152,-0.17824554443359375,0.3683043122291565,0.01,0.0,0.0,0.0,0.01,0.0,0.0,0.0,0.01
1700026482.5327349,51348,1700026482,516435712,sensor_wgs84,0.6725029349327087,0.15489564836025238,0.17668183147907257,0.7018052935600281,2.0124612314725236e-06,0.0,0.0,0.0,2.2955961286715362e-06,0.0,0.0,0.0,6.609350750222485e-05,0.1132030114531517,0.12171391397714615,-0.07747931778430939,0.01,0.0,0.0,0.0,0.01,0.0,0.0,0.0,0.01,-0.001800820231437683,-0.18902873992919922,0.2443866729736328,0.01,0.0,0.0,0.0,0.01,0.0,0.0,0.0,0.01
1700026482.544671,51349,1700026482,526452224,sensor_wgs84,0.6727027297019958,0.155644953250885,0.1767469048500061,0.7014315724372864,2.0124612314725236e-06,0.0,0.0,0.0,2.2955961286715362e-06,0.0,0.0,0.0,6.609350750222485e-05,0.09398064762353897,0.11759575456380844,-0.06583551317453384,0.01,0.0,0.0,0.0,0.01,0.0,0.0,0.0,0.01,0.0477147251367569,-0.2213001251220703,0.21029740571975708,0.01,0.0,0.0,0.0,0.01,0.0,0.0,0.0,0.01
1700026482.5502548,51350,1700026482,536464128,sensor_wgs84,0.6728795170783997,0.15627920627593994,0.1768539994955063,0.7010939717292786,2.0124612314725236e-06,0.0,0.0,0.0,2.2955961286715362e-06,0.0,0.0,0.0,6.609350750222485e-05,0.08127538859844208,0.09778009355068207,-0.034504860639572144,0.01,0.0,0.0,0.0,0.01,0.0,0.0,0.0,0.01,0.08122141659259796,-0.29326343536376953,0.08132067322731018,0.01,0.0,0.0,0.0,0.01,0.0,0.0,0.0,0.01
1700026482.5799136,51351,1700026482,546485760,sensor_wgs84,0.6730793118476868,0.15671655535697937,0.177065908908844,0.7007509469985962,2.021252071909461e-06,0.0,0.0,0.0,2.3108733406842726e-06,0.0,0.0,0.0,6.618969999577871e-05,0.08791665732860565,0.09151005744934082,0.01764988899230957,0.01,0.0,0.0,0.0,0.01,0.0,0.0,0.0,0.01,0.10928347706794739,-0.3047466278076172,0.016342729330062866,0.01,0.0,0.0,0.0,0.01,0.0,0.0,0.0,0.01
1700026482.580088,51352,1700026482,556502528,sensor_wgs84,0.6733848452568054,0.15695178508758545,0.17743676900863647,0.7003108859062195,2.021252071909461e-06,0.0,0.0,0.0,2.3108733406842726e-06,0.0,0.0,0.0,6.618969999577871e-05,0.10927741974592209,0.08817975968122482,0.07837067544460297,0.01,0.0,0.0,0.0,0.01,0.0,0.0,0.0,0.01,0.09631223231554031,-0.30637168884277344,-0.05909660458564758,0.01,0.0,0.0,0.0,0.01,0.0,0.0,0.0,0.01
1700026482.5827837,51353,1700026482,566515968,sensor_wgs84,0.6737901568412781,0.15700598061084747,0.17798301577568054,0.6997700929641724,2.021252071909461e-06,0.0,0.0,0.0,2.3108733406842726e-06,0.0,0.0,0.0,6.618969999577871e-05,0.12118100374937057,0.082238107919693,0.11783164739608765,0.01,0.0,0.0,0.0,0.01,0.0,0.0,0.0,0.01,0.12700630724430084,-0.1694183349609375,-0.008558869361877441,0.01,0.0,0.0,0.0,0.01,0.0,0.0,0.0,0.01
1700026482.59359,51354,1700026482,576531200,sensor_wgs84,0.6742535829544067,0.1569521725177765,0.17865532636642456,0.6991641521453857,2.021252071909461e-06,0.0,0.0,0.0,2.3108733406842726e-06,0.0,0.0,0.0,6.618969999577871e-05,0.12128934264183044,0.0868522971868515,0.15552634000778198,0.01,0.0,0.0,0.0,0.01,0.0,0.0,0.0,0.01,0.16256678104400635,-0.08612728118896484,-0.1319790482521057,0.01,0.0,0.0,0.0,0.01,0.0,0.0,0.0,0.01
1700026482.605558,51355,1700026482,586548480,sensor_wgs84,0.6748223900794983,0.15661713480949402,0.17923341691493988,0.6985422968864441,2.021252071909461e-06,0.0,0.0,0.0,2.3108733406842726e-06,0.0,0.0,0.0,6.618969999577871e-05,0.12513020634651184,0.07052018493413925,0.16625633835792542,0.01,0.0,0.0,0.0,0.01,0.0,0.0,0.0,0.01,0.14134857058525085,-0.1158285140991211,-0.3779316544532776,0.01,0.0,0.0,0.0,0.01,0.0,0.0,0.0,0.01
1700026482.6118305,51356,1700026482,596561408,sensor_wgs84,0.6753318905830383,0.15636110305786133,0.17994582653045654,0.6979237794876099,2.021252071909461e-06,0.0,0.0,0.0,2.3108733406842726e-06,0.0,0.0,0.0,6.618969999577871e-05,0.12076862156391144,0.052705541253089905,0.1805959939956665,0.01,0.0,0.0,0.0,0.01,0.0,0.0,0.0,0.01,0.13605812191963196,-0.13277435302734375,-0.3737192153930664,0.01,0.0,0.0,0.0,0.01,0.0,0.0,0.0,0.01
1700026482.6232066,51357,1700026482,606575872,sensor_wgs84,0.6758641600608826,0.15599757432937622,0.18064144253730774,0.6973099708557129,2.021252071909461e-06,0.0,0.0,0.0,2.3108733406842726e-06,0.0,0.0,0.0,6.618969999577871e-05,0.12332203984260559,0.03537402302026749,0.19573631882667542,0.01,0.0,0.0,0.0,0.01,0.0,0.0,0.0,0.01,0.10294073820114136,-0.15799903869628906,-0.28450605273246765,0.01,0.0,0.0,0.0,0.01,0.0,0.0,0.0,0.01
1700026482.6349685,51358,1700026482,616592384,sensor_wgs84,0.6764119863510132,0.15557417273521423,0.1813289225101471,0.6966946721076965,2.021252071909461e-06,0.0,0.0,0.0,2.3108733406842726e-06,0.0,0.0,0.0,6.618969999577871e-05,0.11651740223169327,0.023842088878154755,0.19202043116092682,0.01,0.0,0.0,0.0,0.01,0.0,0.0,0.0,0.01,0.045530155301094055,-0.08717727661132812,-0.33902180194854736,0.01,0.0,0.0,0.0,0.01,0.0,0.0,0.0,0.01
1700026482.6419086,51359,1700026482,626604288,sensor_wgs84,0.676885187625885,0.15514832735061646,0.18191635608673096,0.6961767077445984,2.021252071909461e-06,0.0,0.0,0.0,2.3108733406842726e-06,0.0,0.0,0.0,6.618969999577871e-05,0.08468518406152725,0.013834469020366669,0.15324796736240387,0.01,0.0,0.0,0.0,0.01,0.0,0.0,0.0,0.01,-0.0344872772693634,-0.048790931701660156,-0.34536272287368774,0.01,0.0,0.0,0.0,0.01,0.0,0.0,0.0,0.01
1700026482.6587431,51360,1700026482,636624640,sensor_wgs84,0.6772016882896423,0.15477582812309265,0.18235039710998535,0.6958380937576294,2.021252071909461e-06,0.0,0.0,0.0,2.3108733406842726e-06,0.0,0.0,0.0,6.618969999577871e-05,0.04152754694223404,-0.0012615097220987082,0.10702832788228989,0.01,0.0,0.0,0.0,0.01,0.0,0.0,0.0,0.01,-0.14160636067390442,-0.07112693786621094,-0.27716678380966187,0.01,0.0,0.0,0.0,0.01,0.0,0.0,0.0,0.01
1700026482.6749897,51361,1700026482,646640640,sensor_wgs84,0.6773541569709778,0.15448275208473206,0.1826140433549881,0.6956856846809387,2.021252071909461e-06,0.0,0.0,0.0,2.3108733406842726e-06,0.0,0.0,0.0,6.618969999577871e-05,0.006318656727671623,-0.00864503812044859,0.0638730376958847,0.01,0.0,0.0,0.0,0.01,0.0,0.0,0.0,0.01,-0.2568202614784241,-0.1685943603515625,-0.1639004945755005,0.01,0.0,0.0,0.0,0.01,0.0,0.0,0.0,0.01
1700026482.6757257,51362,1700026482,656652800,sensor_wgs84,0.6773520708084106,0.1542845219373703,0.182757169008255,0.6956942081451416,2.021252071909461e-06,0.0,0.0,0.0,2.3108733406842726e-06,0.0,0.0,0.0,6.618969999577871e-05,-0.02665720321238041,-0.00645753089338541,0.03347358480095863,0.01,0.0,0.0,0.0,0.01,0.0,0.0,0.0,0.01,-0.3718574345111847,-0.3176259994506836,-0.01834467053413391,0.01,0.0,0.0,0.0,0.01,0.0,0.0,0.0,0.01
1700026482.682926,51363,1700026482,666666752,sensor_wgs84,0.6772342920303345,0.15419650077819824,0.18289493024349213,0.6957921385765076,2.021252071909461e-06,0.0,0.0,0.0,2.3108733406842726e-06,0.0,0.0,0.0,6.618969999577871e-05,-0.0510241873562336,0.024222908541560173,0.020893452689051628,0.01,0.0,0.0,0.0,0.01,0.0,0.0,0.0,0.01,-0.4165298342704773,-0.35970020294189453,0.1267206370830536,0.01,0.0,0.0,0.0,0.01,0.0,0.0,0.0,0.01
1700026482.6963444,51364,1700026482,676684544,sensor_wgs84,0.6770185232162476,0.15424133837223053,0.18316486477851868,0.6959211826324463,2.021252071909461e-06,0.0,0.0,0.0,2.3108733406842726e-06,0.0,0.0,0.0,6.618969999577871e-05,-0.056334227323532104,0.06712794303894043,0.022759951651096344,0.01,0.0,0.0,0.0,0.01,0.0,0.0,0.0,0.01,-0.44338464736938477,-0.29482460021972656,0.23276308178901672,0.01,0.0,0.0,0.0,0.01,0.0,0.0,0.0,0.01
1700026482.7026265,51365,1700026482,686696448,sensor_wgs84,0.676760196685791,0.15445467829704285,0.18362151086330414,0.6960047483444214,2.021252071909461e-06,0.0,0.0,0.0,2.3108733406842726e-06,0.0,0.0,0.0,6.618969999577871e-05,-0.049256082624197006,0.1325550675392151,0.024356504902243614,0.01,0.0,0.0,0.0,0.01,0.0,0.0,0.0,0.01,-0.4235134422779083,-0.13820362091064453,0.2717505693435669,0.01,0.0,0.0,0.0,0.01,0.0,0.0,0.0,0.01
1700026482.712424,51366,1700026482,696709888,sensor_wgs84,0.6764723062515259,0.15488968789577484,0.18426866829395294,0.6960169672966003,2.021252071909461e-06,0.0,0.0,0.0,2.3108733406842726e-06,0.0,0.0,0.0,6.618969999577871e-05,-0.04071179777383804,0.18558919429779053,0.019109558314085007,0.01,0.0,0.0,0.0,0.01,0.0,0.0,0.0,0.01,-0.38803809881210327,0.05548667907714844,0.26306337118148804,0.01,0.0,0.0,0.0,0.01,0.0,0.0,0.0,0.01
1700026482.7253208,51367,1700026482,706726912,sensor_wgs84,0.6761676669120789,0.15553003549575806,0.1850426197052002,0.6959648728370667,2.021252071909461e-06,0.0,0.0,0.0,2.3108733406842726e-06,0.0,0.0,0.0,6.618969999577871e-05,-0.025834422558546066,0.22447380423545837,0.006984326988458633,0.01,0.0,0.0,0.0,0.01,0.0,0.0,0.0,0.01,-0.37737399339675903,0.11570167541503906,0.19333091378211975,0.01,0.0,0.0,0.0,0.01,0.0,0.0,0.0,0.01
1700026482.7323925,51368,1700026482,716740096,sensor_wgs84,0.6758601665496826,0.1563548892736435,0.18587233126163483,0.695857584476471,2.021252071909461e-06,0.0,0.0,0.0,2.3108733406842726e-06,0.0,0.0,0.0,6.618969999577871e-05,-0.01740746572613716,0.25985920429229736,-0.01610082946717739,0.01,0.0,0.0,0.0,0.01,0.0,0.0,0.0,0.01,-0.31525152921676636,0.19036102294921875,0.1483946293592453,0.01,0.0,0.0,0.0,0.01,0.0,0.0,0.0,0.01
1700026482.7440495,51369,1700026482,726755072,sensor_wgs84,0.6755296587944031,0.15735162794589996,0.18669524788856506,0.6957335472106934,2.021252071909461e-06,0.0,0.0,0.0,2.3108733406842726e-06,0.0,0.0,0.0,6.618969999577871e-05,-0.020492028445005417,0.2743990421295166,-0.042196109890937805,0.01,0.0,0.0,0.0,0.01,0.0,0.0,0.0,0.01,-0.23696410655975342,0.3188199996948242,0.05199888348579407,0.01,0.0,0.0,0.0,0.01,0.0,0.0,0.0,0.01
1700026482.7548258,51370,1700026482,736771328,sensor_wgs84,0.6751570105552673,0.158486470580101,0.1874208152294159,0.6956425905227661,2.021252071909461e-06,0.0,0.0,0.0,2.3108733406842726e-06,0.0,0.0,0.0,6.618969999577871e-05,-0.023398974910378456,0.27678346633911133,-0.08231119811534882,0.01,0.0,0.0,0.0,0.01,0.0,0.0,0.0,0.01,-0.1667729616165161,0.37625885009765625,0.018016397953033447,0.01,0.0,0.0,0.0,0.01,0.0,0.0,0.0,0.01
1700026482.762598,51371,1700026482,746783744,sensor_wgs84,0.674765944480896,0.15975084900856018,0.18801066279411316,0.6955735683441162,2.0124430652090133e-06,0.0,0.0,0.0,2.298250055448323e-06,0.0,0.0,0.0,6.617213775378383e-05,-0.01234045997262001,0.2648889124393463,-0.11419588327407837,0.01,0.0,0.0,0.0,0.01,0.0,0.0,0.0,0.01,-0.11660662293434143,0.33887672424316406,0.007185488939285278,0.01,0.0,0.0,0.0,0.01,0.0,0.0,0.0,0.01
1700026482.7773952,51372,1700026482,756797952,sensor_wgs84,0.6743929982185364,0.16108404099941254,0.1884862631559372,0.6954991817474365,2.0124430652090133e-06,0.0,0.0,0.0,2.298250055448323e-06,0.0,0.0,0.0,6.617213775378383e-05,-0.0014036374632269144,0.2632902264595032,-0.128987118601799,0.01,0.0,0.0,0.0,0.01,0.0,0.0,0.0,0.01,-0.04054403305053711,0.29262733459472656,0.06291592121124268,0.01,0.0,0.0,0.0,0.01,0.0,0.0,0.0,0.01
1700026482.7848864,51373,1700026482,766813952,sensor_wgs84,0.6741029620170593,0.16246119141578674,0.1889237016439438,0.6953412294387817,2.0124430652090133e-06,0.0,0.0,0.0,2.298250055448323e-06,0.0,0.0,0.0,6.617213775378383e-05,0.03796585649251938,0.2637065649032593,-0.1236814633011818,0.01,0.0,0.0,0.0,0.01,0.0,0.0,0.0,0.01,0.003112196922302246,0.2397317886352539,0.08516326546669006,0.01,0.0,0.0,0.0,0.01,0.0,0.0,0.0,0.01
1700026482.7925344,51374,1700026482,776825856,sensor_wgs84,0.6739500164985657,0.16382905840873718,0.18935249745845795,0.695051908493042,2.0124430652090133e-06,0.0,0.0,0.0,2.298250055448323e-06,0.0,0.0,0.0,6.617213775378383e-05,0.07458323240280151,0.26298293471336365,-0.11408670991659164,0.01,0.0,0.0,0.0,0.01,0.0,0.0,0.0,0.01,0.08184346556663513,0.2503023147583008,0.08285203576087952,0.01,0.0,0.0,0.0,0.01,0.0,0.0,0.0,0.01
1700026482.8029976,51375,1700026482,786839296,sensor_wgs84,0.6739090085029602,0.16520972549915314,0.18977904319763184,0.6946483850479126,2.0124430652090133e-06,0.0,0.0,0.0,2.298250055448323e-06,0.0,0.0,0.0,6.617213775378383e-05,0.09959915280342102,0.26265913248062134,-0.11277436465024948,0.01,0.0,0.0,0.0,0.01,0.0,0.0,0.0,0.01,0.08460474014282227,0.17552471160888672,0.12306185066699982,0.01,0.0,0.0,0.0,0.01,0.0,0.0,0.0,0.01
1700026482.8141568,51376,1700026482,796855040,sensor_wgs84,0.6739547252655029,0.16659599542617798,0.19022077322006226,0.6941518783569336,2.0124430652090133e-06,0.0,0.0,0.0,2.298250055448323e-06,0.0,0.0,0.0,6.617213775378383e-05,0.12263716757297516,0.276538223028183,-0.09737375378608704,0.01,0.0,0.0,0.0,0.01,0.0,0.0,0.0,0.01,0.12170431017875671,0.1114959716796875,0.20410579442977905,0.01,0.0,0.0,0.0,0.01,0.0,0.0,0.0,0.01
1700026482.8261862,51377,1700026482,806872576,sensor_wgs84,0.6740387678146362,0.1680024117231369,0.19066642224788666,0.6936089396476746,2.0124430652090133e-06,0.0,0.0,0.0,2.298250055448323e-06,0.0,0.0,0.0,6.617213775378383e-05,0.12236389517784119,0.2645804286003113,-0.11451884359121323,0.01,0.0,0.0,0.0,0.01,0.0,0.0,0.0,0.01,0.2693885266780853,0.2092761993408203,0.31130141019821167,0.01,0.0,0.0,0.0,0.01,0.0,0.0,0.0,0.01
1700026482.8379567,51378,1700026482,816891904,sensor_wgs84,0.6740887761116028,0.16943764686584473,0.19102713465690613,0.693111777305603,2.0124430652090133e-06,0.0,0.0,0.0,2.298250055448323e-06,0.0,0.0,0.0,6.617213775378383e-05,0.10645692050457001,0.24823659658432007,-0.13009706139564514,0.01,0.0,0.0,0.0,0.01,0.0,0.0,0.0,0.01,0.3924125134944916,0.17248249053955078,0.10306856036186218,0.01,0.0,0.0,0.0,0.01,0.0,0.0,0.0,0.01
1700026482.8460598,51379,1700026482,826908928,sensor_wgs84,0.6740918159484863,0.17078691720962524,0.1912638247013092,0.6927123069763184,2.0124430652090133e-06,0.0,0.0,0.0,2.298250055448323e-06,0.0,0.0,0.0,6.617213775378383e-05,0.09554354846477509,0.20681026577949524,-0.13529235124588013,0.01,0.0,0.0,0.0,0.01,0.0,0.0,0.0,0.01,0.3686041831970215,-0.06693744659423828,-0.22184064984321594,0.01,0.0,0.0,0.0,0.01,0.0,0.0,0.0,0.01
1700026482.857576,51380,1700026482,836928000,sensor_wgs84,0.6741669178009033,0.1716749519109726,0.1911754012107849,0.6924440264701843,2.0124430652090133e-06,0.0,0.0,0.0,2.298250055448323e-06,0.0,0.0,0.0,6.617213775378383e-05,0.07327184826135635,0.1354365199804306,-0.11914384365081787,0.01,0.0,0.0,0.0,0.01,0.0,0.0,0.0,0.01,0.36510056257247925,-0.15591907501220703,-0.615069568157196,0.01,0.0,0.0,0.0,0.01,0.0,0.0,0.0,0.01
1700026482.8623695,51381,1700026482,846941440,sensor_wgs84,0.6741991639137268,0.1724475920200348,0.19102509319782257,0.6922620534896851,2.0124430652090133e-06,0.0,0.0,0.0,2.298250055448323e-06,0.0,0.0,0.0,6.617213775378383e-05,0.050451092422008514,0.0521358922123909,-0.11787665635347366,0.01,0.0,0.0,0.0,0.01,0.0,0.0,0.0,0.01,0.3619386851787567,-0.08212471008300781,-0.6633924841880798,0.01,0.0,0.0,0.0,0.01,0.0,0.0,0.0,0.01
1700026482.875846,51382,1700026482,856957952,sensor_wgs84,0.674208402633667,0.1729658544063568,0.1906287670135498,0.6922330260276794,2.0124430652090133e-06,0.0,0.0,0.0,2.298250055448323e-06,0.0,0.0,0.0,6.617213775378383e-05,0.026524722576141357,-0.010969019494950771,-0.13012109696865082,0.01,0.0,0.0,0.0,0.01,0.0,0.0,0.0,0.01,0.3221847712993622,-0.07468032836914062,-0.6060798168182373,0.01,0.0,0.0,0.0,0.01,0.0,0.0,0.0,0.01
1700026482.8889368,51383,1700026482,866976256,sensor_wgs84,0.6741724014282227,0.1732833832502365,0.19006209075450897,0.6923444867134094,2.0124430652090133e-06,0.0,0.0,0.0,2.298250055448323e-06,0.0,0.0,0.0,6.617213775378383e-05,0.0004439535550773144,-0.0575307197868824,-0.12243641912937164,0.01,0.0,0.0,0.0,0.01,0.0,0.0,0.0,0.01,0.24538327753543854,-0.17976951599121094,-0.6080201864242554,0.01,0.0,0.0,0.0,0.01,0.0,0.0,0.0,0.01
1700026482.8937826,51384,1700026482,876991232,sensor_wgs84,0.6741164326667786,0.1733994483947754,0.189440056681633,0.6925404071807861,2.0124430652090133e-06,0.0,0.0,0.0,2.298250055448323e-06,0.0,0.0,0.0,6.617213775378383e-05,-0.0167549941688776,-0.08573875576257706,-0.09320098906755447,0.01,0.0,0.0,0.0,0.01,0.0,0.0,0.0,0.01,0.14493997395038605,-0.29922008514404297,-0.5719001889228821,0.01,0.0,0.0,0.0,0.01,0.0,0.0,0.0,0.01
1700026482.9041781,51385,1700026482,887006976,sensor_wgs84,0.6740756034851074,0.17331020534038544,0.18886993825435638,0.6927582025527954,2.0124430652090133e-06,0.0,0.0,0.0,2.298250055448323e-06,0.0,0.0,0.0,6.617213775378383e-05,-0.024587638676166534,-0.10044150799512863,-0.054699983447790146,0.01,0.0,0.0,0.0,0.01,0.0,0.0,0.0,0.01,0.00467623770236969,-0.4128293991088867,-0.4611470699310303,0.01,0.0,0.0,0.0,0.01,0.0,0.0,0.0,0.01
1700026482.9161024,51386,1700026482,897024512,sensor_wgs84,0.6740646362304688,0.17306852340698242,0.18846464157104492,0.6929396986961365,2.0124430652090133e-06,0.0,0.0,0.0,2.298250055448323e-06,0.0,0.0,0.0,6.617213775378383e-05,-0.023400405421853065,-0.0796516090631485,-0.0033575608395040035,0.01,0.0,0.0,0.0,0.01,0.0,0.0,0.0,0.01,-0.09993280470371246,-0.38936805725097656,-0.14514407515525818,0.01,0.0,0.0,0.0,0.01,0.0,0.0,0.0,0.01
1700026482.92833,51387,1700026482,907043584,sensor_wgs84,0.6740763187408447,0.17278297245502472,0.18832649290561676,0.6930370330810547,2.0124430652090133e-06,0.0,0.0,0.0,2.298250055448323e-06,0.0,0.0,0.0,6.617213775378383e-05,-0.012671517208218575,-0.03707890212535858,0.033572591841220856,0.01,0.0,0.0,0.0,0.01,0.0,0.0,0.0,0.01,-0.21276018023490906,-0.30576610565185547,0.13153590261936188,0.01,0.0,0.0,0.0,0.01,0.0,0.0,0.0,0.01
1700026482.9396818,51388,1700026482,917059584,sensor_wgs84,0.6740825176239014,0.1725715845823288,0.1884876936674118,0.6930398941040039,2.0124430652090133e-06,0.0,0.0,0.0,2.298250055448323e-06,0.0,0.0,0.0,6.617213775378383e-05,-0.01224883645772934,0.025835124775767326,0.05966577306389809,0.01,0.0,0.0,0.0,0.01,0.0,0.0,0.0,0.01,-0.2734866142272949,-0.2695951461791992,0.4225923418998718,0.01,0.0,0.0,0.0,0.01,0.0,0.0,0.0,0.01
1700026482.9468367,51389,1700026482,927077376,sensor_wgs84,0.6740500330924988,0.17254865169525146,0.18895554542541504,0.6929497718811035,2.0124430652090133e-06,0.0,0.0,0.0,2.298250055448323e-06,0.0,0.0,0.0,6.617213775378383e-05,-0.013283479027450085,0.10214563459157944,0.07875584810972214,0.01,0.0,0.0,0.0,0.01,0.0,0.0,0.0,0.01,-0.3098284900188446,-0.2592601776123047,0.5356626510620117,0.01,0.0,0.0,0.0,0.01,0.0,0.0,0.0,0.01
1700026482.9520097,51390,1700026482,937090816,sensor_wgs84,0.6739112138748169,0.17274008691310883,0.1896934062242508,0.6928355693817139,2.0007860501209974e-06,0.0,0.0,0.0,2.285890853999438e-06,0.0,0.0,0.0,6.610106403349969e-05,-0.03126457333564758,0.17189203202724457,0.07275472581386566,0.01,0.0,0.0,0.0,0.01,0.0,0.0,0.0,0.01,-0.22968004643917084,-0.21859264373779297,0.661453127861023,0.01,0.0,0.0,0.0,0.01,0.0,0.0,0.0,0.01
1700026482.964028,51391,1700026482,947106304,sensor_wgs84,0.6736545562744141,0.17314183712005615,0.1906413584947586,0.6927246451377869,2.0007860501209974e-06,0.0,0.0,0.0,2.285890853999438e-06,0.0,0.0,0.0,6.610106403349969e-05,-0.04641757905483246,0.22481751441955566,0.06871600449085236,0.01,0.0,0.0,0.0,0.01,0.0,0.0,0.0,0.01,-0.11512477695941925,-0.1926441192626953,0.6859798431396484,0.01,0.0,0.0,0.0,0.01,0.0,0.0,0.0,0.01
1700026482.9760065,51392,1700026482,957123328,sensor_wgs84,0.6733075380325317,0.1737034022808075,0.1917436718940735,0.6926171183586121,2.0007860501209974e-06,0.0,0.0,0.0,2.285890853999438e-06,0.0,0.0,0.0,6.610106403349969e-05,-0.0538778230547905,0.2660272419452667,0.0632949098944664,0.01,0.0,0.0,0.0,0.01,0.0,0.0,0.0,0.01,0.06758882850408554,-0.10128116607666016,0.6904504299163818,0.01,0.0,0.0,0.0,0.01,0.0,0.0,0.0,0.01
1700026482.9828322,51393,1700026482,967137536,sensor_wgs84,0.6728976964950562,0.1743658035993576,0.19294539093971252,0.6925153136253357,2.0007860501209974e-06,0.0,0.0,0.0,2.285890853999438e-06,0.0,0.0,0.0,6.610106403349969e-05,-0.0645831897854805,0.27484890818595886,0.06951447576284409,0.01,0.0,0.0,0.0,0.01,0.0,0.0,0.0,0.01,0.20350727438926697,-0.09685039520263672,0.4440089166164398,0.01,0.0,0.0,0.0,0.01,0.0,0.0,0.0,0.01
1700026482.9962366,51394,1700026482,977154816,sensor_wgs84,0.6724770069122314,0.17503033578395844,0.19416676461696625,0.6924149394035339,2.0007860501209974e-06,0.0,0.0,0.0,2.285890853999438e-06,0.0,0.0,0.0,6.610106403349969e-05,-0.06543080508708954,0.27472424507141113,0.06612999737262726,0.01,0.0,0.0,0.0,0.01,0.0,0.0,0.0,0.01,0.4142555594444275,0.035782814025878906,0.37105727195739746,0.01,0.0,0.0,0.0,0.01,0.0,0.0,0.0,0.01
1700026483.0077693,51395,1700026482,987173632,sensor_wgs84,0.6720621585845947,0.1756744235754013,0.1953299641609192,0.6923273801803589,2.0007860501209974e-06,0.0,0.0,0.0,2.285890853999438e-06,0.0,0.0,0.0,6.610106403349969e-05,-0.05693129450082779,0.252204030752182,0.05636921525001526,0.01,0.0,0.0,0.0,0.01,0.0,0.0,0.0,0.01,0.5472395420074463,0.07847213745117188,0.1991933137178421,0.01,0.0,0.0,0.0,0.01,0.0,0.0,0.0,0.01
1700026483.0196464,51396,1700026482,997194496,sensor_wgs84,0.6716687083244324,0.17624379694461823,0.19634944200515747,0.692276120185852,2.0007860501209974e-06,0.0,0.0,0.0,2.285890853999438e-06,0.0,0.0,0.0,6.610106403349969e-05,-0.062094077467918396,0.21110671758651733,0.04619547352194786,0.01,0.0,0.0,0.0,0.01,0.0,0.0,0.0,0.01,0.6398733258247375,0.08826065063476562,-0.07183125615119934,0.01,0.0,0.0,0.0,0.01,0.0,0.0,0.0,0.01
1700026483.025004,51397,1700026483,7210752,sensor_wgs84,0.6713128089904785,0.17669405043125153,0.19714264571666718,0.6922811269760132,2.0007860501209974e-06,0.0,0.0,0.0,2.285890853999438e-06,0.0,0.0,0.0,6.610106403349969e-05,-0.05855679512023926,0.1491943895816803,0.025319185107946396,0.01,0.0,0.0,0.0,0.01,0.0,0.0,0.0,0.01,0.6980552673339844,0.024446487426757812,-0.20489582419395447,0.01,0.0,0.0,0.0,0.01,0.0,0.0,0.0,0.01
1700026483.0450292,51398,1700026483,17228800,sensor_wgs84,0.671018660068512,0.17698313295841217,0.19767692685127258,0.6923401951789856,2.0007860501209974e-06,0.0,0.0,0.0,2.285890853999438e-06,0.0,0.0,0.0,6.610106403349969e-05,-0.052436504513025284,0.09332137554883957,0.015950335189700127,0.01,0.0,0.0,0.0,0.01,0.0,0.0,0.0,0.01,0.7817463278770447,0.023120880126953125,-0.40106499195098877,0.01,0.0,0.0,0.0,0.01,0.0,0.0,0.0,0.01
1700026483.0451002,51399,1700026483,27243520,sensor_wgs84,0.6708038449287415,0.17706872522830963,0.1979590803384781,0.6924457550048828,2.0007860501209974e-06,0.0,0.0,0.0,2.285890853999438e-06,0.0,0.0,0.0,6.610106403349969e-05,-0.043918050825595856,0.015036563389003277,0.016171684488654137,0.01,0.0,0.0,0.0,0.01,0.0,0.0,0.0,0.01,0.7779751420021057,-0.06559944152832031,-0.49969854950904846,0.01,0.0,0.0,0.0,0.01,0.0,0.0,0.0,0.01
1700026483.054304,51400,1700026483,37258752,sensor_wgs84,0.6707092523574829,0.176875039935112,0.19798748195171356,0.6925786733627319,2.0007860501209974e-06,0.0,0.0,0.0,2.285890853999438e-06,0.0,0.0,0.0,6.610106403349969e-05,-0.036259718239307404,-0.07010050117969513,0.030092671513557434,0.01,0.0,0.0,0.0,0.01,0.0,0.0,0.0,0.01,0.6939125061035156,-0.1243448257446289,-0.7386223673820496,0.01,0.0,0.0,0.0,0.01,0.0,0.0,0.0,0.01
1700026483.0654113,51401,1700026483,47275776,sensor_wgs84,0.6707533597946167,0.17636197805404663,0.19772569835186005,0.6927416920661926,2.0007860501209974e-06,0.0,0.0,0.0,2.285890853999438e-06,0.0,0.0,0.0,6.610106403349969e-05,-0.022703751921653748,-0.15618042647838593,0.025468764826655388,0.01,0.0,0.0,0.0,0.01,0.0,0.0,0.0,0.01,0.5060577988624573,-0.11671161651611328,-0.757125735282898,0.01,0.0,0.0,0.0,0.01,0.0,0.0,0.0,0.01
1700026483.0730603,51402,1700026483,57290240,sensor_wgs84,0.6708709597587585,0.1756065934896469,0.19712883234024048,0.6929897665977478,2.0007860501209974e-06,0.0,0.0,0.0,2.285890853999438e-06,0.0,0.0,0.0,6.610106403349969e-05,-0.028732620179653168,-0.23374104499816895,-0.0028020800091326237,0.01,0.0,0.0,0.0,0.01,0.0,0.0,0.0,0.01,0.2867327034473419,-0.11385822296142578,-0.48657217621803284,0.01,0.0,0.0,0.0,0.01,0.0,0.0,0.0,0.01
1700026483.0850985,51403,1700026483,67305728,sensor_wgs84,0.6709831357002258,0.17473359405994415,0.19625534117221832,0.6933496594429016,2.0007860501209974e-06,0.0,0.0,0.0,2.285890853999438e-06,0.0,0.0,0.0,6.610106403349969e-05,-0.049716249108314514,-0.2720063030719757,-0.029023535549640656,0.01,0.0,0.0,0.0,0.01,0.0,0.0,0.0,0.01,0.04579964280128479,-0.26816654205322266,-0.10583782196044922,0.01,0.0,0.0,0.0,0.01,0.0,0.0,0.0,0.01
1700026483.0969775,51404,1700026483,77323520,sensor_wgs84,0.6710254549980164,0.17382250726222992,0.19526325166225433,0.693817675113678,2.0007860501209974e-06,0.0,0.0,0.0,2.285890853999438e-06,0.0,0.0,0.0,6.610106403349969e-05,-0.0741456001996994,-0.2795809209346771,-0.03673752024769783,0.01,0.0,0.0,0.0,0.01,0.0,0.0,0.0,0.01,-0.17767319083213806,-0.4260406494140625,0.0913357138633728,0.01,0.0,0.0,0.0,0.01,0.0,0.0,0.0,0.01
1700026483.1017668,51405,1700026483,87336704,sensor_wgs84,0.6709564328193665,0.17284046113491058,0.19411709904670715,0.694451093673706,2.0007860501209974e-06,0.0,0.0,0.0,2.285890853999438e-06,0.0,0.0,0.0,6.610106403349969e-05,-0.1033899188041687,-0.26035842299461365,-0.040610723197460175,0.01,0.0,0.0,0.0,0.01,0.0,0.0,0.0,0.01,-0.37765252590179443,-0.48688507080078125,0.2430029660463333,0.01,0.0,0.0,0.0,0.01,0.0,0.0,0.0,0.01
1700026483.1139967,51406,1700026483,97351936,sensor_wgs84,0.6707468628883362,0.17203369736671448,0.1932849884033203,0.6950855851173401,2.0007860501209974e-06,0.0,0.0,0.0,2.285890853999438e-06,0.0,0.0,0.0,6.610106403349969e-05,-0.12276294827461243,-0.21372516453266144,-0.036850541830062866,0.01,0.0,0.0,0.0,0.01,0.0,0.0,0.0,0.01,-0.4864972233772278,-0.4789867401123047,0.42031848430633545,0.01,0.0,0.0,0.0,0.01,0.0,0.0,0.0,0.01
1700026483.1262467,51407,1700026483,107368960,sensor_wgs84,0.670432984828949,0.17137964069843292,0.1926494985818863,0.695726215839386,2.0007860501209974e-06,0.0,0.0,0.0,2.285890853999438e-06,0.0,0.0,0.0,6.610106403349969e-05,-0.1389775276184082,-0.15567462146282196,-0.031999967992305756,0.01,0.0,0.0,0.0,0.01,0.0,0.0,0.0,0.01,-0.4897480309009552,-0.4498739242553711,0.5569638013839722,0.01,0.0,0.0,0.0,0.01,0.0,0.0,0.0,0.01
1700026483.1397505,51408,1700026483,117382656,sensor_wgs84,0.6700034141540527,0.17090235650539398,0.1922466903924942,0.6963685750961304,2.0007860501209974e-06,0.0,0.0,0.0,2.285890853999438e-06,0.0,0.0,0.0,6.610106403349969e-05,-0.1595943421125412,-0.09176244586706161,-0.028152070939540863,0.01,0.0,0.0,0.0,0.01,0.0,0.0,0.0,0.01,-0.4768202304840088,-0.5127878189086914,0.43371495604515076,0.01,0.0,0.0,0.0,0.01,0.0,0.0,0.0,0.01
1700026483.1448896,51409,1700026483,127399168,sensor_wgs84,0.6694537997245789,0.17058028280735016,0.1920810341835022,0.6970214247703552,2.0007860501209974e-06,0.0,0.0,0.0,2.285890853999438e-06,0.0,0.0,0.0,6.610106403349969e-05,-0.1816668063402176,-0.046313174068927765,-0.01750537008047104,0.01,0.0,0.0,0.0,0.01,0.0,0.0,0.0,0.01,-0.4037279784679413,-0.5131950378417969,0.1957402229309082,0.01,0.0,0.0,0.0,0.01,0.0,0.0,0.0,0.01
1700026483.1567173,51410,1700026483,137417728,sensor_wgs84,0.6688181757926941,0.1703280359506607,0.19211013615131378,0.6976850032806396,2.0003088693299007e-06,0.0,0.0,0.0,2.2847398920703213e-06,0.0,0.0,0.0,6.605830491014653e-05,-0.1916854977607727,-0.015768632292747498,-0.0013994317268952727,0.01,0.0,0.0,0.0,0.01,0.0,0.0,0.0,0.01,-0.3550572395324707,-0.4349660873413086,-0.059147536754608154,0.01,0.0,0.0,0.0,0.01,0.0,0.0,0.0,0.01
1700026483.1631181,51411,1700026483,147431424,sensor_wgs84,0.6681382656097412,0.17013342678546906,0.19223739206790924,0.6983486413955688,2.0003088693299007e-06,0.0,0.0,0.0,2.2847398920703213e-06,0.0,0.0,0.0,6.605830491014653e-05,-0.19588731229305267,-0.002247187541797757,-0.005719147156924009,0.01,0.0,0.0,0.0,0.01,0.0,0.0,0.0,0.01,-0.27922141551971436,-0.23558330535888672,-0.12789949774742126,0.01,0.0,0.0,0.0,0.01,0.0,0.0,0.0,0.01
1700026483.1750617,51412,1700026483,157447168,sensor_wgs84,0.6674410700798035,0.1699969619512558,0.19240035116672516,0.6990033388137817,2.0003088693299007e-06,0.0,0.0,0.0,2.2847398920703213e-06,0.0,0.0,0.0,6.605830491014653e-05,-0.19325551390647888,0.011580009013414383,-0.006640228442847729,0.01,0.0,0.0,0.0,0.01,0.0,0.0,0.0,0.01,-0.2917291224002838,-0.1832447052001953,-0.018819451332092285,0.01,0.0,0.0,0.0,0.01,0.0,0.0,0.0,0.01
1700026483.1910563,51413,1700026483,167464704,sensor_wgs84,0.6667723655700684,0.16989639401435852,0.19255340099334717,0.6996235251426697,2.0003088693299007e-06,0.0,0.0,0.0,2.2847398920703213e-06,0.0,0.0,0.0,6.605830491014653e-05,-0.182170569896698,0.013797696679830551,-0.01433948427438736,0.01,0.0,0.0,0.0,0.01,0.0,0.0,0.0,0.01,-0.3186824321746826,-0.192474365234375,-0.06834900379180908,0.01,0.0,0.0,0.0,0.01,0.0,0.0,0.0,0.01
1700026483.1936846,51414,1700026483,177479424,sensor_wgs84,0.6661328077316284,0.16981881856918335,0.19270621240139008,0.700209379196167,2.0003088693299007e-06,0.0,0.0,0.0,2.2847398920703213e-06,0.0,0.0,0.0,6.605830491014653e-05,-0.17139528691768646,0.014987526461482048,-0.013711970299482346,0.01,0.0,0.0,0.0,0.01,0.0,0.0,0.0,0.01,-0.387241005897522,-0.1478099822998047,-0.00560992956161499,0.01,0.0,0.0,0.0,0.01,0.0,0.0,0.0,0.01
1700026483.2038057,51415,1700026483,187494400,sensor_wgs84,0.6654870510101318,0.16981470584869385,0.19283080101013184,0.700789749622345,2.0003088693299007e-06,0.0,0.0,0.0,2.2847398920703213e-06,0.0,0.0,0.0,6.605830491014653e-05,-0.1699250191450119,0.02708241157233715,-0.043888408690690994,0.01,0.0,0.0,0.0,0.01,0.0,0.0,0.0,0.01,-0.37933897972106934,0.09122085571289062,0.18487483263015747,0.01,0.0,0.0,0.0,0.01,0.0,0.0,0.0,0.01
1700026483.2161405,51416,1700026483,197511168,sensor_wgs84,0.6647810935974121,0.17002037167549133,0.19287875294685364,0.7013965249061584,2.0003088693299007e-06,0.0,0.0,0.0,2.2847398920703213e-06,0.0,0.0,0.0,6.605830491014653e-05,-0.17753125727176666,0.060175083577632904,-0.09057100862264633,0.01,0.0,0.0,0.0,0.01,0.0,0.0,0.0,0.01,-0.34028488397598267,0.1934947967529297,0.37724101543426514,0.01,0.0,0.0,0.0,0.01,0.0,0.0,0.0,0.01
1700026483.222968,51417,1700026483,207525120,sensor_wgs84,0.6640048623085022,0.17047880589962006,0.1928851157426834,0.7020184397697449,2.0003088693299007e-06,0.0,0.0,0.0,2.2847398920703213e-06,0.0,0.0,0.0,6.605830491014653e-05,-0.172973170876503,0.09077031165361404,-0.12197262793779373,0.01,0.0,0.0,0.0,0.01,0.0,0.0,0.0,0.01,-0.2800353169441223,0.12153816223144531,0.39635568857192993,0.01,0.0,0.0,0.0,0.01,0.0,0.0,0.0,0.01
1700026483.2403202,51418,1700026483,217540864,sensor_wgs84,0.6631971597671509,0.17111830413341522,0.19293034076690674,0.7026137113571167,2.0003088693299007e-06,0.0,0.0,0.0,2.2847398920703213e-06,0.0,0.0,0.0,6.605830491014653e-05,-0.1658119261264801,0.1206737831234932,-0.13083435595035553,0.01,0.0,0.0,0.0,0.01,0.0,0.0,0.0,0.01,-0.16408666968345642,0.13319110870361328,0.28518396615982056,0.01,0.0,0.0,0.0,0.01,0.0,0.0,0.0,0.01
1700026483.2458148,51419,1700026483,227558144,sensor_wgs84,0.6623960137367249,0.17185543477535248,0.19298647344112396,0.7031739354133606,2.0003088693299007e-06,0.0,0.0,0.0,2.2847398920703213e-06,0.0,0.0,0.0,6.605830491014653e-05,-0.15282554924488068,0.12625735998153687,-0.14675873517990112,0.01,0.0,0.0,0.0,0.01,0.0,0.0,0.0,0.01,-0.026786774396896362,0.28253936767578125,0.1285007894039154,0.01,0.0,0.0,0.0,0.01,0.0,0.0,0.0,0.01
1700026483.2528393,51420,1700026483,237571072,sensor_wgs84,0.6616098284721375,0.172651469707489,0.1929703950881958,0.7037232518196106,2.0003088693299007e-06,0.0,0.0,0.0,2.2847398920703213e-06,0.0,0.0,0.0,6.605830491014653e-05,-0.14841613173484802,0.11504490673542023,-0.1680106222629547,0.01,0.0,0.0,0.0,0.01,0.0,0.0,0.0,0.01,0.11624602973461151,0.42557716369628906,0.012433111667633057,0.01,0.0,0.0,0.0,0.01,0.0,0.0,0.0,0.01
1700026483.2640078,51421,1700026483,247585536,sensor_wgs84,0.6608321666717529,0.17349141836166382,0.19285763800144196,0.7042781114578247,2.0003088693299007e-06,0.0,0.0,0.0,2.2847398920703213e-06,0.0,0.0,0.0,6.605830491014653e-05,-0.144073948264122,0.11064356565475464,-0.18072611093521118,0.01,0.0,0.0,0.0,0.01,0.0,0.0,0.0,0.01,0.24836209416389465,0.3909435272216797,-0.011802375316619873,0.01,0.0,0.0,0.0,0.01,0.0,0.0,0.0,0.01
1700026483.2759676,51422,1700026483,257602304,sensor_wgs84,0.6600953936576843,0.1743389517068863,0.19272345304489136,0.7047961950302124,2.0003088693299007e-06,0.0,0.0,0.0,2.2847398920703213e-06,0.0,0.0,0.0,6.605830491014653e-05,-0.129571333527565,0.1150720939040184,-0.16977395117282867,0.01,0.0,0.0,0.0,0.01,0.0,0.0,0.0,0.01,0.3934924602508545,0.2997608184814453,0.02834343910217285,0.01,0.0,0.0,0.0,0.01,0.0,0.0,0.0,0.01
1700026483.2829325,51423,1700026483,267616000,sensor_wgs84,0.659439742565155,0.17513395845890045,0.19268375635147095,0.7052236199378967,2.0003088693299007e-06,0.0,0.0,0.0,2.2847398920703213e-06,0.0,0.0,0.0,6.605830491014653e-05,-0.10697785019874573,0.11553208529949188,-0.1287882924079895,0.01,0.0,0.0,0.0,0.01,0.0,0.0,0.0,0.01,0.49897390604019165,0.21983814239501953,-0.11879658699035645,0.01,0.0,0.0,0.0,0.01,0.0,0.0,0.0,0.01
1700026483.295556,51424,1700026483,277632768,sensor_wgs84,0.6589046716690063,0.17580780386924744,0.19275443255901337,0.7055367231369019,2.0003088693299007e-06,0.0,0.0,0.0,2.2847398920703213e-06,0.0,0.0,0.0,6.605830491014653e-05,-0.08741677552461624,0.1043374314904213,-0.08789155632257462,0.01,0.0,0.0,0.0,0.01,0.0,0.0,0.0,0.01,0.5851106643676758,0.2467803955078125,-0.4048346281051636,0.01,0.0,0.0,0.0,0.01,0.0,0.0,0.0,0.01
1700026483.3077517,51425,1700026483,287651328,sensor_wgs84,0.6584633588790894,0.17632848024368286,0.19282375276088715,0.7057998180389404,2.0003088693299007e-06,0.0,0.0,0.0,2.2847398920703213e-06,0.0,0.0,0.0,6.605830491014653e-05,-0.07659372687339783,0.0795992910861969,-0.0721723660826683,0.01,0.0,0.0,0.0,0.01,0.0,0.0,0.0,0.01,0.6025267243385315,0.19503498077392578,-0.5877110362052917,0.01,0.0,0.0,0.0,0.01,0.0,0.0,0.0,0.01
1700026483.3194811,51426,1700026483,297670144,sensor_wgs84,0.6580883264541626,0.17666953802108765,0.19281339645385742,0.7060670852661133,2.0003088693299007e-06,0.0,0.0,0.0,2.2847398920703213e-06,0.0,0.0,0.0,6.605830491014653e-05,-0.07767649739980698,0.025486551225185394,-0.06831356883049011,0.01,0.0,0.0,0.0,0.01,0.0,0.0,0.0,0.01,0.5763585567474365,0.1741790771484375,-0.7011677622795105,0.01,0.0,0.0,0.0,0.01,0.0,0.0,0.0,0.01
1700026483.3304818,51427,1700026483,307685376,sensor_wgs84,0.6577340364456177,0.17683500051498413,0.19262011349201202,0.7064085006713867,2.0003088693299007e-06,0.0,0.0,0.0,2.2847398920703213e-06,0.0,0.0,0.0,6.605830491014653e-05,-0.09296730160713196,-0.03597770258784294,-0.0784493088722229,0.01,0.0,0.0,0.0,0.01,0.0,0.0,0.0,0.01,0.4612388610839844,0.0501251220703125,-0.719667911529541,0.01,0.0,0.0,0.0,0.01,0.0,0.0,0.0,0.01
1700026483.3408065,51428,1700026483,317703168,sensor_wgs84,0.6573635339736938,0.17679452896118164,0.19219458103179932,0.7068791389465332,2.0003088693299007e-06,0.0,0.0,0.0,2.2847398920703213e-06,0.0,0.0,0.0,6.605830491014653e-05,-0.11710929870605469,-0.08644288033246994,-0.09384194016456604,0.01,0.0,0.0,0.0,0.01,0.0,0.0,0.0,0.01,0.354876309633255,-0.0278167724609375,-0.5099077820777893,0.01,0.0,0.0,0.0,0.01,0.0,0.0,0.0,0.01
1700026483.3481662,51429,1700026483,327722240,sensor_wgs84,0.6568998694419861,0.176653191447258,0.19164849817752838,0.7074935436248779,2.0003088693299007e-06,0.0,0.0,0.0,2.2847398920703213e-06,0.0,0.0,0.0,6.605830491014653e-05,-0.15202347934246063,-0.1008635088801384,-0.10354399681091309,0.01,0.0,0.0,0.0,0.01,0.0,0.0,0.0,0.01,0.24875719845294952,-0.10146331787109375,-0.1134037971496582,0.01,0.0,0.0,0.0,0.01,0.0,0.0,0.0,0.01
1700026483.3587103,51430,1700026483,337737472,sensor_wgs84,0.6563547253608704,0.17632417380809784,0.1909628063440323,0.7082666158676147,2.009378435063655e-06,0.0,0.0,0.0,2.297587224085447e-06,0.0,0.0,0.0,6.610874215395943e-05,-0.1819078028202057,-0.08238326013088226,-0.09968636184930801,0.01,0.0,0.0,0.0,0.01,0.0,0.0,0.0,0.01,0.1726614087820053,-0.14801788330078125,-0.02630561590194702,0.01,0.0,0.0,0.0,0.01,0.0,0.0,0.0,0.01
1700026483.3686311,51431,1700026483,347754240,sensor_wgs84,0.655660092830658,0.17617064714431763,0.19059567153453827,0.7090466022491455,2.009378435063655e-06,0.0,0.0,0.0,2.297587224085447e-06,0.0,0.0,0.0,6.610874215395943e-05,-0.19925689697265625,-0.05554455146193504,-0.06851925700902939,0.01,0.0,0.0,0.0,0.01,0.0,0.0,0.0,0.01,0.09830611944198608,-0.17911815643310547,-0.09683126211166382,0.01,0.0,0.0,0.0,0.01,0.0,0.0,0.0,0.01
1700026483.379432,51432,1700026483,357773056,sensor_wgs84,0.6549373269081116,0.17599958181381226,0.19044871628284454,0.7097961902618408,2.009378435063655e-06,0.0,0.0,0.0,2.297587224085447e-06,0.0,0.0,0.0,6.610874215395943e-05,-0.20132282376289368,-0.03406255319714546,-0.030660074204206467,0.01,0.0,0.0,0.0,0.01,0.0,0.0,0.0,0.01,0.026904696598649025,-0.16063690185546875,-0.22023546695709229,0.01,0.0,0.0,0.0,0.01,0.0,0.0,0.0,0.01
1700026483.389968,51433,1700026483,367788800,sensor_wgs84,0.6542471051216125,0.17576327919960022,0.19049200415611267,0.7104793787002563,2.009378435063655e-06,0.0,0.0,0.0,2.297587224085447e-06,0.0,0.0,0.0,6.610874215395943e-05,-0.18946339190006256,-0.012539461255073547,0.00421299459412694,0.01,0.0,0.0,0.0,0.01,0.0,0.0,0.0,0.01,0.007835695520043373,0.01668548583984375,-0.2628454566001892,0.01,0.0,0.0,0.0,0.01,0.0,0.0,0.0,0.01
1700026483.398114,51434,1700026483,377806080,sensor_wgs84,0.6536339521408081,0.17551623284816742,0.1906750500202179,0.711055338382721,2.009378435063655e-06,0.0,0.0,0.0,2.297587224085447e-06,0.0,0.0,0.0,6.610874215395943e-05,-0.16368842124938965,0.000656801275908947,0.029775669798254967,0.01,0.0,0.0,0.0,0.01,0.0,0.0,0.0,0.01,-0.01144733838737011,0.11464214324951172,-0.07772034406661987,0.01,0.0,0.0,0.0,0.01,0.0,0.0,0.0,0.01
1700026483.4046533,51435,1700026483,387818496,sensor_wgs84,0.6531031131744385,0.17530007660388947,0.1909753382205963,0.7115157842636108,2.009378435063655e-06,0.0,0.0,0.0,2.297587224085447e-06,0.0,0.0,0.0,6.610874215395943e-05,-0.1456737220287323,0.023054029792547226,0.047155022621154785,0.01,0.0,0.0,0.0,0.01,0.0,0.0,0.0,0.01,-0.056706685572862625,0.09668445587158203,0.09292078018188477,0.01,0.0,0.0,0.0,0.01,0.0,0.0,0.0,0.01
1700026483.4139457,51436,1700026483,397832704,sensor_wgs84,0.6526262760162354,0.17514543235301971,0.19139674305915833,0.7118780612945557,2.009378435063655e-06,0.0,0.0,0.0,2.297587224085447e-06,0.0,0.0,0.0,6.610874215395943e-05,-0.12837757170200348,0.05154314264655113,0.05897432565689087,0.01,0.0,0.0,0.0,0.01,0.0,0.0,0.0,0.01,-0.06628254055976868,0.14195632934570312,0.18435633182525635,0.01,0.0,0.0,0.0,0.01,0.0,0.0,0.0,0.01
1700026483.4257221,51437,1700026483,407848960,sensor_wgs84,0.652199387550354,0.17506979405879974,0.19191868603229523,0.7121473550796509,2.009378435063655e-06,0.0,0.0,0.0,2.297587224085447e-06,0.0,0.0,0.0,6.610874215395943e-05,-0.10369126498699188,0.07791423052549362,0.059631288051605225,0.01,0.0,0.0,0.0,0.01,0.0,0.0,0.0,0.01,-0.07948076725006104,0.20478057861328125,0.2444474697113037,0.01,0.0,0.0,0.0,0.01,0.0,0.0,0.0,0.01
1700026483.4433868,51438,1700026483,417863680,sensor_wgs84,0.6518240571022034,0.17510728538036346,0.19246824085712433,0.7123334407806396,2.009378435063655e-06,0.0,0.0,0.0,2.297587224085447e-06,0.0,0.0,0.0,6.610874215395943e-05,-0.0874677449464798,0.0949387177824974,0.042729075998067856,0.01,0.0,0.0,0.0,0.01,0.0,0.0,0.0,0.01,-0.0663471668958664,0.2731027603149414,0.32829082012176514,0.01,0.0,0.0,0.0,0.01,0.0,0.0,0.0,0.01
1700026483.4458473,51439,1700026483,427879680,sensor_wgs84,0.6514730453491211,0.17526401579380035,0.1930028796195984,0.7124712467193604,2.009378435063655e-06,0.0,0.0,0.0,2.297587224085447e-06,0.0,0.0,0.0,6.610874215395943e-05,-0.07376661151647568,0.10554010421037674,0.027761733159422874,0.01,0.0,0.0,0.0,0.01,0.0,0.0,0.0,0.01,-0.02327956072986126,0.29261016845703125,0.3219350576400757,0.01,0.0,0.0,0.0,0.01,0.0,0.0,0.0,0.01
1700026483.4577487,51440,1700026483,437897984,sensor_wgs84,0.6511366367340088,0.17551930248737335,0.19346652925014496,0.7125902771949768,2.009378435063655e-06,0.0,0.0,0.0,2.297587224085447e-06,0.0,0.0,0.0,6.610874215395943e-05,-0.062459271401166916,0.10492236167192459,0.005772358737885952,0.01,0.0,0.0,0.0,0.01,0.0,0.0,0.0,0.01,-0.008519990369677544,0.2416839599609375,0.24901825189590454,0.01,0.0,0.0,0.0,0.01,0.0,0.0,0.0,0.01
1700026483.4681993,51441,1700026483,447916800,sensor_wgs84,0.6508243680000305,0.1758057177066803,0.19381316006183624,0.7127107381820679,2.009378435063655e-06,0.0,0.0,0.0,2.297587224085447e-06,0.0,0.0,0.0,6.610874215395943e-05,-0.060511209070682526,0.08726436644792557,-0.01301649585366249,0.01,0.0,0.0,0.0,0.01,0.0,0.0,0.0,0.01,-0.0003504753112792969,0.1357097625732422,0.1882876753807068,0.01,0.0,0.0,0.0,0.01,0.0,0.0,0.0,0.01
1700026483.475169,51442,1700026483,457932544,sensor_wgs84,0.6505313515663147,0.17608287930488586,0.1940172016620636,0.7128542065620422,2.009378435063655e-06,0.0,0.0,0.0,2.297587224085447e-06,0.0,0.0,0.0,6.610874215395943e-05,-0.061321109533309937,0.059831876307725906,-0.033837344497442245,0.01,0.0,0.0,0.0,0.01,0.0,0.0,0.0,0.01,0.022294307127594948,0.14599895477294922,0.005215764045715332,0.01,0.0,0.0,0.0,0.01,0.0,0.0,0.0,0.01
1700026483.4938757,51443,1700026483,467949824,sensor_wgs84,0.6502240300178528,0.1763264536857605,0.19402016699314117,0.7130736112594604,2.009378435063655e-06,0.0,0.0,0.0,2.297587224085447e-06,0.0,0.0,0.0,6.610874215395943e-05,-0.06785964220762253,0.02821960859000683,-0.0636301189661026,0.01,0.0,0.0,0.0,0.01,0.0,0.0,0.0,0.01,0.05090121179819107,0.11069488525390625,-0.032389044761657715,0.01,0.0,0.0,0.0,0.01,0.0,0.0,0.0,0.01
1700026483.4948094,51444,1700026483,477963776,sensor_wgs84,0.6499030590057373,0.1765194833278656,0.1938515603542328,0.71336430311203,2.009378435063655e-06,0.0,0.0,0.0,2.297587224085447e-06,0.0,0.0,0.0,6.610874215395943e-05,-0.07047469913959503,-0.007966313511133194,-0.07924862205982208,0.01,0.0,0.0,0.0,0.01,0.0,0.0,0.0,0.01,0.07944820076227188,0.09319877624511719,-0.05812501907348633,0.01,0.0,0.0,0.0,0.01,0.0,0.0,0.0,0.01
1700026483.5041256,51445,1700026483,487978240,sensor_wgs84,0.6495940685272217,0.17667031288146973,0.19357500970363617,0.7136834263801575,2.009378435063655e-06,0.0,0.0,0.0,2.297587224085447e-06,0.0,0.0,0.0,6.610874215395943e-05,-0.07039306312799454,-0.024829082190990448,-0.08604763448238373,0.01,0.0,0.0,0.0,0.01,0.0,0.0,0.0,0.01,0.11191659420728683,0.10236072540283203,-0.1353435516357422,0.01,0.0,0.0,0.0,0.01,0.0,0.0,0.0,0.01
1700026483.5160177,51446,1700026483,497994752,sensor_wgs84,0.6493282318115234,0.17675842344760895,0.1932305097579956,0.7139967083930969,2.009378435063655e-06,0.0,0.0,0.0,2.297587224085447e-06,0.0,0.0,0.0,6.610874215395943e-05,-0.06142324581742287,-0.041225824505090714,-0.07589616626501083,0.01,0.0,0.0,0.0,0.01,0.0,0.0,0.0,0.01,0.06868750602006912,0.023146629333496094,-0.2689427137374878,0.01,0.0,0.0,0.0,0.01,0.0,0.0,0.0,0.01
1700026483.5236154,51447,1700026483,508007936,sensor_wgs84,0.6491388082504272,0.17674675583839417,0.19285090267658234,0.7142744660377502,2.009378435063655e-06,0.0,0.0,0.0,2.297587224085447e-06,0.0,0.0,0.0,6.610874215395943e-05,-0.0386442206799984,-0.06653223186731339,-0.06786379963159561,0.01,0.0,0.0,0.0,0.01,0.0,0.0,0.0,0.01,0.05113712698221207,0.03658485412597656,-0.2551994323730469,0.01,0.0,0.0,0.0,0.01,0.0,0.0,0.0,0.01
1700026483.5346801,51448,1700026483,518022912,sensor_wgs84,0.6490298509597778,0.17666958272457123,0.19243071973323822,0.7145058512687683,2.009378435063655e-06,0.0,0.0,0.0,2.297587224085447e-06,0.0,0.0,0.0,6.610874215395943e-05,-0.03172741457819939,-0.07499730587005615,-0.06307274103164673,0.01,0.0,0.0,0.0,0.01,0.0,0.0,0.0,0.01,0.03423316404223442,0.028413772583007812,-0.20443010330200195,0.01,0.0,0.0,0.0,0.01,0.0,0.0,0.0,0.01
1700026483.5596693,51449,1700026483,528040192,sensor_wgs84,0.6489738821983337,0.17656055092811584,0.19198033213615417,0.7147048115730286,2.009378435063655e-06,0.0,0.0,0.0,2.297587224085447e-06,0.0,0.0,0.0,6.610874215395943e-05,-0.01724431850016117,-0.08185321092605591,-0.05569853633642197,0.01,0.0,0.0,0.0,0.01,0.0,0.0,0.0,0.01,-0.04369655251502991,-0.08772087097167969,-0.23067986965179443,0.01,0.0,0.0,0.0,0.01,0.0,0.0,0.0,0.01
1700026483.559737,51450,1700026483,538053120,sensor_wgs84,0.648944079875946,0.17642104625701904,0.19153185188770294,0.7148865461349487,1.999448507029414e-06,0.0,0.0,0.0,2.284869404811131e-06,0.0,0.0,0.0,6.605489870533613e-05,-0.014083505608141422,-0.0862341821193695,-0.047643404453992844,0.01,0.0,0.0,0.0,0.01,0.0,0.0,0.0,0.01,-0.1398245245218277,-0.22899627685546875,-0.10787498950958252,0.01,0.0,0.0,0.0,0.01,0.0,0.0,0.0,0.01
1700026483.5646892,51451,1700026483,548067328,sensor_wgs84,0.6489458680152893,0.17625777423381805,0.19113586843013763,0.7150311470031738,1.999448507029414e-06,0.0,0.0,0.0,2.284869404811131e-06,0.0,0.0,0.0,6.605489870533613e-05,-0.009596079587936401,-0.07194884121417999,-0.03580986335873604,0.01,0.0,0.0,0.0,0.01,0.0,0.0,0.0,0.01,-0.24433863162994385,-0.29991626739501953,0.05830508470535278,0.01,0.0,0.0,0.0,0.01,0.0,0.0,0.0,0.01
1700026483.5757995,51452,1700026483,558083328,sensor_wgs84,0.6489239931106567,0.17613117396831512,0.1907951980829239,0.7151732444763184,1.999448507029414e-06,0.0,0.0,0.0,2.284869404811131e-06,0.0,0.0,0.0,6.605489870533613e-05,-0.027097266167402267,-0.05369439721107483,-0.04436977207660675,0.01,0.0,0.0,0.0,0.01,0.0,0.0,0.0,0.01,-0.31347334384918213,-0.22068405151367188,0.17346680164337158,0.01,0.0,0.0,0.0,0.01,0.0,0.0,0.0,0.01
1700026483.5847442,51453,1700026483,568097792,sensor_wgs84,0.6488045454025269,0.1761072874069214,0.19050654768943787,0.7153644561767578,1.999448507029414e-06,0.0,0.0,0.0,2.284869404811131e-06,0.0,0.0,0.0,6.605489870533613e-05,-0.04302118346095085,-0.030299583449959755,-0.05151655524969101,0.01,0.0,0.0,0.0,0.01,0.0,0.0,0.0,0.01,-0.3522634208202362,-0.1754608154296875,0.22648537158966064,0.01,0.0,0.0,0.0,0.01,0.0,0.0,0.0,0.01
1700026483.5963511,51454,1700026483,578113536,sensor_wgs84,0.6485568881034851,0.17621994018554688,0.19026118516921997,0.7156264781951904,1.999448507029414e-06,0.0,0.0,0.0,2.284869404811131e-06,0.0,0.0,0.0,6.605489870533613e-05,-0.06380952894687653,-0.006210360210388899,-0.0817166343331337,0.01,0.0,0.0,0.0,0.01,0.0,0.0,0.0,0.01,-0.3424302041530609,-0.10039520263671875,0.11159080266952515,0.01,0.0,0.0,0.0,0.01,0.0,0.0,0.0,0.01
1700026483.6141782,51455,1700026483,588131328,sensor_wgs84,0.6482521891593933,0.17629653215408325,0.18984253704547882,0.7159947752952576,1.999448507029414e-06,0.0,0.0,0.0,2.284869404811131e-06,0.0,0.0,0.0,6.605489870533613e-05,-0.08423373848199844,0.017461830750107765,-0.10532771795988083,0.01,0.0,0.0,0.0,0.01,0.0,0.0,0.0,0.01,-0.2551227807998657,-0.022462844848632812,0.024306118488311768,0.01,0.0,0.0,0.0,0.01,0.0,0.0,0.0,0.01
1700026483.6142445,51456,1700026483,598144768,sensor_wgs84,0.6477968096733093,0.17664581537246704,0.1895855814218521,0.7163887619972229,1.999448507029414e-06,0.0,0.0,0.0,2.284869404811131e-06,0.0,0.0,0.0,6.605489870533613e-05,-0.10080332309007645,0.022336145862936974,-0.11952171474695206,0.01,0.0,0.0,0.0,0.01,0.0,0.0,0.0,0.01,-0.11554017663002014,0.020671844482421875,-0.06388521194458008,0.01,0.0,0.0,0.0,0.01,0.0,0.0,0.0,0.01
1700026483.6251602,51457,1700026483,608160000,sensor_wgs84,0.6473056674003601,0.17703065276145935,0.18932881951332092,0.7168055176734924,1.999448507029414e-06,0.0,0.0,0.0,2.284869404811131e-06,0.0,0.0,0.0,6.605489870533613e-05,-0.09589937329292297,0.026487775146961212,-0.1177317351102829,0.01,0.0,0.0,0.0,0.01,0.0,0.0,0.0,0.01,0.0012285411357879639,0.06837749481201172,-0.2880403995513916,0.01,0.0,0.0,0.0,0.01,0.0,0.0,0.0,0.01
1700026483.636914,51458,1700026483,618177280,sensor_wgs84,0.6468450427055359,0.17737935483455658,0.18907210230827332,0.7172028422355652,1.999448507029414e-06,0.0,0.0,0.0,2.284869404811131e-06,0.0,0.0,0.0,6.605489870533613e-05,-0.0908711850643158,0.011444996111094952,-0.10582292824983597,0.01,0.0,0.0,0.0,0.01,0.0,0.0,0.0,0.01,-0.017561189830303192,0.07681560516357422,-0.5597344636917114,0.01,0.0,0.0,0.0,0.01,0.0,0.0,0.0,0.01
1700026483.6436505,51459,1700026483,628190976,sensor_wgs84,0.6464676260948181,0.177615225315094,0.18874244391918182,0.717571496963501,1.999448507029414e-06,0.0,0.0,0.0,2.284869404811131e-06,0.0,0.0,0.0,6.605489870533613e-05,-0.07204559445381165,-0.021390262991189957,-0.10122831165790558,0.01,0.0,0.0,0.0,0.01,0.0,0.0,0.0,0.01,-0.02012483775615692,0.17884445190429688,-0.42565709352493286,0.01,0.0,0.0,0.0,0.01,0.0,0.0,0.0,0.01
1700026483.6542413,51460,1700026483,638205440,sensor_wgs84,0.6461595892906189,0.17782144248485565,0.18837054073810577,0.7178954482078552,1.999448507029414e-06,0.0,0.0,0.0,2.284869404811131e-06,0.0,0.0,0.0,6.605489870533613e-05,-0.05196952447295189,-0.014547563157975674,-0.10045866668224335,0.01,0.0,0.0,0.0,0.01,0.0,0.0,0.0,0.01,0.004712343215942383,0.2906780242919922,0.006518840789794922,0.01,0.0,0.0,0.0,0.01,0.0,0.0,0.0,0.01
1700026483.666026,51461,1700026483,648221440,sensor_wgs84,0.6458938121795654,0.17811934649944305,0.1880505234003067,0.7181446552276611,1.999448507029414e-06,0.0,0.0,0.0,2.284869404811131e-06,0.0,0.0,0.0,6.605489870533613e-05,-0.040146756917238235,0.021205931901931763,-0.10075337439775467,0.01,0.0,0.0,0.0,0.01,0.0,0.0,0.0,0.01,0.034324973821640015,0.24765586853027344,0.29533135890960693,0.01,0.0,0.0,0.0,0.01,0.0,0.0,0.0,0.01
1700026483.6743188,51462,1700026483,658234624,sensor_wgs84,0.6456296443939209,0.17851781845092773,0.18786166608333588,0.7183326482772827,1.999448507029414e-06,0.0,0.0,0.0,2.284869404811131e-06,0.0,0.0,0.0,6.605489870533613e-05,-0.04008026793599129,0.0522521547973156,-0.09126212447881699,0.01,0.0,0.0,0.0,0.01,0.0,0.0,0.0,0.01,0.11865778267383575,0.18935680389404297,0.314023494720459,0.01,0.0,0.0,0.0,0.01,0.0,0.0,0.0,0.01
1700026483.6846123,51463,1700026483,668249600,sensor_wgs84,0.6453484892845154,0.1789597123861313,0.1877748966217041,0.7184979915618896,1.999448507029414e-06,0.0,0.0,0.0,2.284869404811131e-06,0.0,0.0,0.0,6.605489870533613e-05,-0.04799393191933632,0.05524326115846634,-0.08196311444044113,0.01,0.0,0.0,0.0,0.01,0.0,0.0,0.0,0.01,0.20675739645957947,0.17302799224853516,0.08995974063873291,0.01,0.0,0.0,0.0,0.01,0.0,0.0,0.0,0.01
1700026483.696708,51464,1700026483,678266112,sensor_wgs84,0.6450335383415222,0.179380863904953,0.18770308792591095,0.7186945676803589,1.999448507029414e-06,0.0,0.0,0.0,2.284869404811131e-06,0.0,0.0,0.0,6.605489870533613e-05,-0.05606361851096153,0.049791477620601654,-0.08810798078775406,0.01,0.0,0.0,0.0,0.01,0.0,0.0,0.0,0.01,0.3185636103153229,0.27989768981933594,-0.03222048282623291,0.01,0.0,0.0,0.0,0.01,0.0,0.0,0.0,0.01
1700026483.7044618,51465,1700026483,688278528,sensor_wgs84,0.644704282283783,0.17976179718971252,0.18753531575202942,0.7189385890960693,1.999448507029414e-06,0.0,0.0,0.0,2.284869404811131e-06,0.0,0.0,0.0,6.605489870533613e-05,-0.06120174005627632,0.02334127202630043,-0.09712125360965729,0.01,0.0,0.0,0.0,0.01,0.0,0.0,0.0,0.01,0.42903032898902893,0.28910160064697266,-0.02105879783630371,0.01,0.0,0.0,0.0,0.01,0.0,0.0,0.0,0.01
1700026483.7146108,51466,1700026483,698292480,sensor_wgs84,0.644376277923584,0.1800435483455658,0.1872757375240326,0.7192296981811523,1.999448507029414e-06,0.0,0.0,0.0,2.284869404811131e-06,0.0,0.0,0.0,6.605489870533613e-05,-0.06602036207914352,-0.006499820854514837,-0.09080973267555237,0.01,0.0,0.0,0.0,0.01,0.0,0.0,0.0,0.01,0.505237340927124,0.17278575897216797,-0.0600740909576416,0.01,0.0,0.0,0.0,0.01,0.0,0.0,0.0,0.01
1700026483.730014,51467,1700026483,708308480,sensor_wgs84,0.6440982222557068,0.18015609681606293,0.18697379529476166,0.7195291519165039,1.999448507029414e-06,0.0,0.0,0.0,2.284869404811131e-06,0.0,0.0,0.0,6.605489870533613e-05,-0.06028715893626213,-0.04148068651556969,-0.06525816023349762,0.01,0.0,0.0,0.0,0.01,0.0,0.0,0.0,0.01,0.5731796026229858,0.07319831848144531,-0.17719638347625732,0.01,0.0,0.0,0.0,0.01,0.0,0.0,0.0,0.01
1700026483.7343485,51468,1700026483,718322176,sensor_wgs84,0.643886923789978,0.18003998696804047,0.18666723370552063,0.719826877117157,1.999448507029414e-06,0.0,0.0,0.0,2.284869404811131e-06,0.0,0.0,0.0,6.605489870533613e-05,-0.05680682882666588,-0.07905448228120804,-0.02788691408932209,0.01,0.0,0.0,0.0,0.01,0.0,0.0,0.0,0.01,0.5994967222213745,0.04108238220214844,-0.2976417541503906,0.01,0.0,0.0,0.0,0.01,0.0,0.0,0.0,0.01
1700026483.7456043,51469,1700026483,728337664,sensor_wgs84,0.6438080072402954,0.17964869737625122,0.1863597333431244,0.7200748324394226,1.999448507029414e-06,0.0,0.0,0.0,2.284869404811131e-06,0.0,0.0,0.0,6.605489870533613e-05,-0.03425588458776474,-0.1280735284090042,0.01924583688378334,0.01,0.0,0.0,0.0,0.01,0.0,0.0,0.0,0.01,0.5431963205337524,-0.040355682373046875,-0.2939269542694092,0.01,0.0,0.0,0.0,0.01,0.0,0.0,0.0,0.01
1700026483.7560868,51470,1700026483,738353920,sensor_wgs84,0.6439003944396973,0.17898064851760864,0.18606434762477875,0.7202348709106445,1.9902450504110606e-06,0.0,0.0,0.0,2.2722321562611286e-06,0.0,0.0,0.0,6.598422085974612e-05,-0.014438827522099018,-0.15681679546833038,0.058401819318532944,0.01,0.0,0.0,0.0,0.01,0.0,0.0,0.0,0.01,0.5046041011810303,-0.01784992218017578,-0.09094119071960449,0.01,0.0,0.0,0.0,0.01,0.0,0.0,0.0,0.01
1700026483.7771366,51471,1700026483,748367104,sensor_wgs84,0.644108235836029,0.17815646529197693,0.18580907583236694,0.7203192710876465,1.9902450504110606e-06,0.0,0.0,0.0,2.2722321562611286e-06,0.0,0.0,0.0,6.598422085974612e-05,0.010157193057239056,-0.16608475148677826,0.09105609357357025,0.01,0.0,0.0,0.0,0.01,0.0,0.0,0.0,0.01,0.36946332454681396,-0.13080596923828125,0.22724151611328125,0.01,0.0,0.0,0.0,0.01,0.0,0.0,0.0,0.01
1700026483.777194,51472,1700026483,758382080,sensor_wgs84,0.6443816423416138,0.177225723862648,0.18568076193332672,0.7203375101089478,1.9902450504110606e-06,0.0,0.0,0.0,2.2722321562611286e-06,0.0,0.0,0.0,6.598422085974612e-05,0.005989039316773415,-0.15288007259368896,0.12772877514362335,0.01,0.0,0.0,0.0,0.01,0.0,0.0,0.0,0.01,0.20635156333446503,-0.2831840515136719,0.46816110610961914,0.01,0.0,0.0,0.0,0.01,0.0,0.0,0.0,0.01
1700026483.7869172,51473,1700026483,768398592,sensor_wgs84,0.6446439623832703,0.1762622743844986,0.1857461929321289,0.72032231092453,1.9902450504110606e-06,0.0,0.0,0.0,2.2722321562611286e-06,0.0,0.0,0.0,6.598422085974612e-05,-0.00754918996244669,-0.13198542594909668,0.15863825380802155,0.01,0.0,0.0,0.0,0.01,0.0,0.0,0.0,0.01,0.06943142414093018,-0.2536907196044922,0.5329760909080505,0.01,0.0,0.0,0.0,0.01,0.0,0.0,0.0,0.01
1700026483.7947316,51474,1700026483,778411008,sensor_wgs84,0.6448416113853455,0.17532053589820862,0.18599899113178253,0.7203099727630615,1.9902450504110606e-06,0.0,0.0,0.0,2.2722321562611286e-06,0.0,0.0,0.0,6.598422085974612e-05,-0.016810068860650063,-0.09485089778900146,0.16710329055786133,0.01,0.0,0.0,0.0,0.01,0.0,0.0,0.0,0.01,-0.050153061747550964,-0.2193431854248047,0.57355135679245,0.01,0.0,0.0,0.0,0.01,0.0,0.0,0.0,0.01
1700026483.8044236,51475,1700026483,788424960,sensor_wgs84,0.6449756026268005,0.17447206377983093,0.18640150129795074,0.7202919721603394,1.9902450504110606e-06,0.0,0.0,0.0,2.2722321562611286e-06,0.0,0.0,0.0,6.598422085974612e-05,-0.03068454936146736,-0.059345562011003494,0.1800113171339035,0.01,0.0,0.0,0.0,0.01,0.0,0.0,0.0,0.01,-0.09372194111347198,-0.16692733764648438,0.5983304977416992,0.01,0.0,0.0,0.0,0.01,0.0,0.0,0.0,0.01
1700026483.8167837,51476,1700026483,798440960,sensor_wgs84,0.6450430154800415,0.17374137043952942,0.1869017779827118,0.7202786207199097,1.9902450504110606e-06,0.0,0.0,0.0,2.2722321562611286e-06,0.0,0.0,0.0,6.598422085974612e-05,-0.039431240409612656,-0.02886785753071308,0.15964224934577942,0.01,0.0,0.0,0.0,0.01,0.0,0.0,0.0,0.01,-0.06493319571018219,-0.1181650161743164,0.3579930067062378,0.01,0.0,0.0,0.0,0.01,0.0,0.0,0.0,0.01
1700026483.824463,51477,1700026483,808453632,sensor_wgs84,0.645016610622406,0.17311619222164154,0.18738789856433868,0.7203264832496643,1.9902450504110606e-06,0.0,0.0,0.0,2.2722321562611286e-06,0.0,0.0,0.0,6.598422085974612e-05,-0.06064872816205025,-0.033604271709918976,0.13617534935474396,0.01,0.0,0.0,0.0,0.01,0.0,0.0,0.0,0.01,-0.04789580777287483,-0.1700582504272461,0.005582690238952637,0.01,0.0,0.0,0.0,0.01,0.0,0.0,0.0,0.01
1700026483.8363912,51478,1700026483,818469376,sensor_wgs84,0.6448983550071716,0.1725156158208847,0.18776674568653107,0.7204777598381042,1.9902450504110606e-06,0.0,0.0,0.0,2.2722321562611286e-06,0.0,0.0,0.0,6.598422085974612e-05,-0.07508931308984756,-0.051551878452301025,0.10881763696670532,0.01,0.0,0.0,0.0,0.01,0.0,0.0,0.0,0.01,-0.014457602053880692,-0.14191532135009766,-0.15453970432281494,0.01,0.0,0.0,0.0,0.01,0.0,0.0,0.0,0.01
1700026483.8538768,51479,1700026483,828487936,sensor_wgs84,0.6447369456291199,0.17189989984035492,0.18798759579658508,0.7207117080688477,1.9902450504110606e-06,0.0,0.0,0.0,2.2722321562611286e-06,0.0,0.0,0.0,6.598422085974612e-05,-0.08721056580543518,-0.07546314597129822,0.08600703626871109,0.01,0.0,0.0,0.0,0.01,0.0,0.0,0.0,0.01,0.003242082893848419,-0.10349082946777344,-0.22747647762298584,0.01,0.0,0.0,0.0,0.01,0.0,0.0,0.0,0.01
1700026483.860215,51480,1700026483,838503936,sensor_wgs84,0.6446053981781006,0.17118389904499054,0.18783454596996307,0.7210397720336914,1.9902450504110606e-06,0.0,0.0,0.0,2.2722321562611286e-06,0.0,0.0,0.0,6.598422085974612e-05,-0.09012649953365326,-0.10835295170545578,0.06331126391887665,0.01,0.0,0.0,0.0,0.01,0.0,0.0,0.0,0.01,-0.03820539265871048,-0.16917037963867188,-0.388039231300354,0.01,0.0,0.0,0.0,0.01,0.0,0.0,0.0,0.01
1700026483.8642905,51481,1700026483,848515072,sensor_wgs84,0.6444705724716187,0.17047631740570068,0.18772542476654053,0.721356213092804,1.9902450504110606e-06,0.0,0.0,0.0,2.2722321562611286e-06,0.0,0.0,0.0,6.598422085974612e-05,-0.08005320280790329,-0.12831319868564606,0.05617954954504967,0.01,0.0,0.0,0.0,0.01,0.0,0.0,0.0,0.01,-0.11330980062484741,-0.17885971069335938,-0.4440962076187134,0.01,0.0,0.0,0.0,0.01,0.0,0.0,0.0,0.01
1700026483.8737547,51482,1700026483,858528000,sensor_wgs84,0.6443841457366943,0.16971419751644135,0.18752896785736084,0.7216641306877136,1.9902450504110606e-06,0.0,0.0,0.0,2.2722321562611286e-06,0.0,0.0,0.0,6.598422085974612e-05,-0.07010946422815323,-0.1501632183790207,0.049659840762615204,0.01,0.0,0.0,0.0,0.01,0.0,0.0,0.0,0.01,-0.25220951437950134,-0.11888599395751953,-0.353100061416626,0.01,0.0,0.0,0.0,0.01,0.0,0.0,0.0,0.01
1700026483.8899515,51483,1700026483,868544256,sensor_wgs84,0.6443283557891846,0.16896604001522064,0.18725745379924774,0.7219599485397339,1.9902450504110606e-06,0.0,0.0,0.0,2.2722321562611286e-06,0.0,0.0,0.0,6.598422085974612e-05,-0.06185028702020645,-0.15114706754684448,0.03708469867706299,0.01,0.0,0.0,0.0,0.01,0.0,0.0,0.0,0.01,-0.3419511020183563,-0.0053119659423828125,-0.14741766452789307,0.01,0.0,0.0,0.0,0.01,0.0,0.0,0.0,0.01
1700026483.8938296,51484,1700026483,878556672,sensor_wgs84,0.644249677658081,0.16833877563476562,0.1869768351316452,0.7222493290901184,1.9902450504110606e-06,0.0,0.0,0.0,2.2722321562611286e-06,0.0,0.0,0.0,6.598422085974612e-05,-0.06594730913639069,-0.12042789906263351,0.01806972734630108,0.01,0.0,0.0,0.0,0.01,0.0,0.0,0.0,0.01,-0.4067640006542206,-0.010066986083984375,0.10677599906921387,0.01,0.0,0.0,0.0,0.01,0.0,0.0,0.0,0.01
1700026483.903827,51485,1700026483,888569600,sensor_wgs84,0.6441284418106079,0.16786858439445496,0.18674159049987793,0.7225277423858643,1.9902450504110606e-06,0.0,0.0,0.0,2.2722321562611286e-06,0.0,0.0,0.0,6.598422085974612e-05,-0.06329310685396194,-0.08790692687034607,0.004768304526805878,0.01,0.0,0.0,0.0,0.01,0.0,0.0,0.0,0.01,-0.44562777876853943,-0.04960918426513672,0.18608856201171875,0.01,0.0,0.0,0.0,0.01,0.0,0.0,0.0,0.01
1700026483.9149861,51486,1700026483,898584576,sensor_wgs84,0.643955409526825,0.1675461232662201,0.1866033971309662,0.7227925658226013,1.9902450504110606e-06,0.0,0.0,0.0,2.2722321562611286e-06,0.0,0.0,0.0,6.598422085974612e-05,-0.06639852374792099,-0.046271372586488724,0.005626543425023556,0.01,0.0,0.0,0.0,0.01,0.0,0.0,0.0,0.01,-0.48220953345298767,-0.10299873352050781,0.17848527431488037,0.01,0.0,0.0,0.0,0.01,0.0,0.0,0.0,0.01
