Time,header.seq,header.stamp.secs,header.stamp.nsecs,header.frame_id,orientation.x,orientation.y,orientation.z,orientation.w,orientation_covariance_0,orientation_covariance_1,orientation_covariance_2,orientation_covariance_3,orientation_covariance_4,orientation_covariance_5,orientation_covariance_6,orientation_covariance_7,orientation_covariance_8,angular_velocity.x,angular_velocity.y,angular_velocity.z,angular_velocity_covariance_0,angular_velocity_covariance_1,angular_velocity_covariance_2,angular_velocity_covariance_3,angular_velocity_covariance_4,angular_velocity_covariance_5,angular_velocity_covariance_6,angular_velocity_covariance_7,angular_velocity_covariance_8,linear_acceleration.x,linear_acceleration.y,linear_acceleration.z,linear_acceleration_covariance_0,linear_acceleration_covariance_1,linear_acceleration_covariance_2,linear_acceleration_covariance_3,linear_acceleration_covariance_4,linear_acceleration_covariance_5,linear_acceleration_covariance_6,linear_acceleration_covariance_7,linear_acceleration_covariance_8
1700026481.3762155,51071,1700026481,234633472,gx5_link,0.6602797508239746,0.11036123335361481,0.14584659039974213,0.7284091114997864,0.01,0.0,0.0,0.0,0.01,0.0,0.0,0.0,0.01,-0.015375645831227303,-0.017319917678833008,-0.033920980989933014,0.01,0.0,0.0,0.0,0.01,0.0,0.0,0.0,0.01,-0.308806202257052,-9.873519304180144,-0.9532179124999791,0.01,0.0,0.0,0.0,0.01,0.0,0.0,0.0,0.01
1700026481.376306,51072,1700026481,244648448,gx5_link,0.6602029800415039,0.1103876531124115,0.14568454027175903,0.7285071015357971,0.01,0.0,0.0,0.0,0.01,0.0,0.0,0.0,0.01,-0.021909773349761963,-0.020516304299235344,-0.03187573701143265,0.01,0.0,0.0,0.0,0.01,0.0,0.0,0.0,0.01,-0.29908067132811994,-9.837648364853859,-0.9327004635196179,0.01,0.0,0.0,0.0,0.01,0.0,0.0,0.0,0.01
1700026481.3765028,51073,1700026481,254664448,gx5_link,0.6601186990737915,0.11038314551115036,0.14554961025714874,0.728611171245575,0.01,0.0,0.0,0.0,0.01,0.0,0.0,0.0,0.01,-0.02602529339492321,-0.02316831611096859,-0.02555219829082489,0.01,0.0,0.0,0.0,0.01,0.0,0.0,0.0,0.01,-0.31413075828067955,-9.821403332495688,-0.9230590672101825,0.01,0.0,0.0,0.0,0.01,0.0,0.0,0.0,0.01
1700026481.3765655,51074,1700026481,264682752,gx5_link,0.6600439548492432,0.11036457866430283,0.14543595910072327,0.7287044525146484,0.01,0.0,0.0,0.0,0.01,0.0,0.0,0.0,0.01,-0.024346614256501198,-0.022410189732909203,-0.020942986011505127,0.01,0.0,0.0,0.0,0.01,0.0,0.0,0.0,0.01,-0.32022849063389003,-9.780527716749907,-0.9418306954365223,0.01,0.0,0.0,0.0,0.01,0.0,0.0,0.0,0.01
1700026481.3767533,51075,1700026481,274697728,gx5_link,0.6599959135055542,0.1103140339255333,0.14532576501369476,0.7287775278091431,0.01,0.0,0.0,0.0,0.01,0.0,0.0,0.0,0.01,-0.017117954790592194,-0.024851994588971138,-0.015439431183040142,0.01,0.0,0.0,0.0,0.01,0.0,0.0,0.0,0.01,-0.32620928207654504,-9.760161805069446,-0.9985752767696976,0.01,0.0,0.0,0.0,0.01,0.0,0.0,0.0,0.01
1700026481.376874,51076,1700026481,284720896,gx5_link,0.6599651575088501,0.11023160070180893,0.14521081745624542,0.7288408279418945,0.01,0.0,0.0,0.0,0.01,0.0,0.0,0.0,0.01,-0.011863434687256813,-0.028894245624542236,-0.009441313333809376,0.01,0.0,0.0,0.0,0.01,0.0,0.0,0.0,0.01,-0.32974881784692406,-9.773163909983634,-1.0328414843130855,0.01,0.0,0.0,0.0,0.01,0.0,0.0,0.0,0.01
1700026481.3770797,51077,1700026481,294738688,gx5_link,0.659960150718689,0.11015666276216507,0.14512839913368225,0.7288730144500732,0.01,0.0,0.0,0.0,0.01,0.0,0.0,0.0,0.01,-0.007074263412505388,-0.025904668495059013,-0.004693998023867607,0.01,0.0,0.0,0.0,0.01,0.0,0.0,0.0,0.01,-0.3241184472771361,-9.795093417719006,-1.0177192454397679,0.01,0.0,0.0,0.0,0.01,0.0,0.0,0.0,0.01
1700026481.377219,51078,1700026481,304753920,gx5_link,0.6599765419960022,0.1100805252790451,0.14507988095283508,0.7288793325424194,0.01,0.0,0.0,0.0,0.01,0.0,0.0,0.0,0.01,-0.0005071929190307856,-0.02353234961628914,0.0023106210865080357,0.01,0.0,0.0,0.0,0.01,0.0,0.0,0.0,0.01,-0.3133417267948389,-9.81921838967204,-1.0392801390584558,0.01,0.0,0.0,0.0,0.01,0.0,0.0,0.0,0.01
1700026481.37729,51079,1700026481,314770944,gx5_link,0.6600144505500793,0.1099802777171135,0.1450357288122177,0.7288690209388733,0.01,0.0,0.0,0.0,0.01,0.0,0.0,0.0,0.01,0.00527166947722435,-0.024731555953621864,0.0075066713616251945,0.01,0.0,0.0,0.0,0.01,0.0,0.0,0.0,0.01,-0.3009848792479373,-9.856683904713393,-1.0715301114086062,0.01,0.0,0.0,0.0,0.01,0.0,0.0,0.0,0.01
1700026481.3776143,51080,1700026481,324788992,gx5_link,0.6600375175476074,0.10986780375242233,0.1449749767780304,0.728877067565918,0.01,0.0,0.0,0.0,0.01,0.0,0.0,0.0,0.01,0.0031325998716056347,-0.029001988470554352,0.004501625429838896,0.01,0.0,0.0,0.0,0.01,0.0,0.0,0.0,0.01,-0.2840703866629861,-9.850808290678263,-1.1468336280655116,0.01,0.0,0.0,0.0,0.01,0.0,0.0,0.0,0.01
1700026481.3777418,51081,1700026481,334803200,gx5_link,0.6599929928779602,0.10973428934812546,0.14482645690441132,0.728967010974884,0.01,0.0,0.0,0.0,0.01,0.0,0.0,0.0,0.01,-0.011648079380393028,-0.04035590589046478,-0.005910349544137716,0.01,0.0,0.0,0.0,0.01,0.0,0.0,0.0,0.01,-0.2726320604667999,-9.822061504143475,-1.1927332825183867,0.01,0.0,0.0,0.0,0.01,0.0,0.0,0.0,0.01
1700026481.3779154,51082,1700026481,344819200,gx5_link,0.659900963306427,0.10957878082990646,0.14458388090133667,0.7291219234466553,0.01,0.0,0.0,0.0,0.01,0.0,0.0,0.0,0.01,-0.024922672659158707,-0.054297398775815964,-0.017400000244379044,0.01,0.0,0.0,0.0,0.01,0.0,0.0,0.0,0.01,-0.2679602509971708,-9.80597663078308,-1.1978916151296346,0.01,0.0,0.0,0.0,0.01,0.0,0.0,0.0,0.01
1700026481.377954,51083,1700026481,354836480,gx5_link,0.6597663164138794,0.1093917116522789,0.14428767561912537,0.7293304800987244,0.01,0.0,0.0,0.0,0.01,0.0,0.0,0.0,0.01,-0.03868986293673515,-0.06578471511602402,-0.024828441441059113,0.01,0.0,0.0,0.0,0.01,0.0,0.0,0.0,0.01,-0.2891711438680999,-9.807356102442741,-1.20352589468956,0.01,0.0,0.0,0.0,0.01,0.0,0.0,0.0,0.01
1700026481.3828294,51084,1700026481,364852224,gx5_link,0.6596118211746216,0.10917142778635025,0.1440025269985199,0.7295595407485962,0.01,0.0,0.0,0.0,0.01,0.0,0.0,0.0,0.01,-0.046922631561756134,-0.07188352942466736,-0.023224536329507828,0.01,0.0,0.0,0.0,0.01,0.0,0.0,0.0,0.01,-0.33878333430439234,-9.825703075516223,-1.1761387791354208,0.01,0.0,0.0,0.0,0.01,0.0,0.0,0.0,0.01
1700026481.4020452,51085,1700026481,374874624,gx5_link,0.6594719290733337,0.10892479121685028,0.14379848539829254,0.7297630906105042,0.01,0.0,0.0,0.0,0.01,0.0,0.0,0.0,0.01,-0.04760940372943878,-0.06725643575191498,-0.012111067771911621,0.01,0.0,0.0,0.0,0.01,0.0,0.0,0.0,0.01,-0.38904122049938883,-9.796445416849851,-1.0830248804997653,0.01,0.0,0.0,0.0,0.01,0.0,0.0,0.0,0.01
1700026481.4044392,51086,1700026481,384892160,gx5_link,0.659357488155365,0.10871999710798264,0.14367781579494476,0.7299208641052246,0.01,0.0,0.0,0.0,0.01,0.0,0.0,0.0,0.01,-0.044132862240076065,-0.0506448969244957,-0.003984293434768915,0.01,0.0,0.0,0.0,0.01,0.0,0.0,0.0,0.01,-0.4272129110487178,-9.74079425677657,-0.9671402009990065,0.01,0.0,0.0,0.0,0.01,0.0,0.0,0.0,0.01
1700026481.4144304,51087,1700026481,394907136,gx5_link,0.6592515707015991,0.10862836986780167,0.14367173612117767,0.7300313115119934,0.01,0.0,0.0,0.0,0.01,0.0,0.0,0.0,0.01,-0.04054269194602966,-0.02277052029967308,-0.00041685940232127905,0.01,0.0,0.0,0.0,0.01,0.0,0.0,0.0,0.01,-0.43592963026128706,-9.707512749421596,-0.8567116680122911,0.01,0.0,0.0,0.0,0.01,0.0,0.0,0.0,0.01
1700026481.4243717,51088,1700026481,404923648,gx5_link,0.6591501832008362,0.10868177562952042,0.14376886188983917,0.7300958037376404,0.01,0.0,0.0,0.0,0.01,0.0,0.0,0.0,0.01,-0.03370056673884392,0.011776300147175789,-0.0010903378715738654,0.01,0.0,0.0,0.0,0.01,0.0,0.0,0.0,0.01,-0.4043476933658123,-9.685389764940737,-0.81175543188937,0.01,0.0,0.0,0.0,0.01,0.0,0.0,0.0,0.01
1700026481.4344969,51089,1700026481,414941696,gx5_link,0.6590145230293274,0.10883910208940506,0.14392562210559845,0.7301639914512634,0.01,0.0,0.0,0.0,0.01,0.0,0.0,0.0,0.01,-0.03267218917608261,0.03585156053304672,-0.004839079920202494,0.01,0.0,0.0,0.0,0.01,0.0,0.0,0.0,0.01,-0.3337387642659247,-9.63193699169457,-0.9082778237942606,0.01,0.0,0.0,0.0,0.01,0.0,0.0,0.0,0.01
1700026481.444505,51090,1700026481,424955648,gx5_link,0.6588305234909058,0.10906751453876495,0.14402957260608673,0.7302753925323486,0.01,0.0,0.0,0.0,0.01,0.0,0.0,0.0,0.01,-0.0337471142411232,0.044968873262405396,-0.019268972799181938,0.01,0.0,0.0,0.0,0.01,0.0,0.0,0.0,0.01,-0.2501600068199448,-9.562810263976454,-1.0817193508591503,0.01,0.0,0.0,0.0,0.01,0.0,0.0,0.0,0.01
1700026481.4550297,51091,1700026481,434972672,gx5_link,0.6586071252822876,0.10930515080690384,0.14402267336845398,0.7304427027702332,0.01,0.0,0.0,0.0,0.01,0.0,0.0,0.0,0.01,-0.037928905338048935,0.03425956517457962,-0.034452635794878006,0.01,0.0,0.0,0.0,0.01,0.0,0.0,0.0,0.01,-0.17344737228378654,-9.503428100681305,-1.2615088587112724,0.01,0.0,0.0,0.0,0.01,0.0,0.0,0.0,0.01
1700026481.4644122,51092,1700026481,444989696,gx5_link,0.6583818793296814,0.109498530626297,0.14383845031261444,0.7306530475616455,0.01,0.0,0.0,0.0,0.01,0.0,0.0,0.0,0.01,-0.037702154368162155,0.008758784271776676,-0.054207026958465576,0.01,0.0,0.0,0.0,0.01,0.0,0.0,0.0,0.01,-0.10594252841277048,-9.457887415733932,-1.3812114890649914,0.01,0.0,0.0,0.0,0.01,0.0,0.0,0.0,0.01
1700026481.4744534,51093,1700026481,455005184,gx5_link,0.658190131187439,0.10963201522827148,0.14350992441177368,0.7308703660964966,0.01,0.0,0.0,0.0,0.01,0.0,0.0,0.0,0.01,-0.03315434977412224,-0.018732938915491104,-0.06551636755466461,0.01,0.0,0.0,0.0,0.01,0.0,0.0,0.0,0.01,-0.06385954617122187,-9.452741869539022,-1.39855410740152,0.01,0.0,0.0,0.0,0.01,0.0,0.0,0.0,0.01
1700026481.4908452,51094,1700026481,465028608,gx5_link,0.658057451248169,0.10969051718711853,0.14308126270771027,0.7310651540756226,0.01,0.0,0.0,0.0,0.01,0.0,0.0,0.0,0.01,-0.02364158257842064,-0.04345163330435753,-0.07015626132488251,0.01,0.0,0.0,0.0,0.01,0.0,0.0,0.0,0.01,-0.06961692695443053,-9.487931256341934,-1.3707725126370787,0.01,0.0,0.0,0.0,0.01,0.0,0.0,0.0,0.01
1700026481.4981763,51095,1700026481,475046400,gx5_link,0.6580055356025696,0.10967876762151718,0.1426190584897995,0.7312038540840149,0.01,0.0,0.0,0.0,0.01,0.0,0.0,0.0,0.01,-0.011207184754312038,-0.06109723076224327,-0.06467413157224655,0.01,0.0,0.0,0.0,0.01,0.0,0.0,0.0,0.01,-0.09780308849834836,-9.526848139235376,-1.2896835444465278,0.01,0.0,0.0,0.0,0.01,0.0,0.0,0.0,0.01
1700026481.5055494,51096,1700026481,485060864,gx5_link,0.6580280065536499,0.10963015258312225,0.1421864926815033,0.7312752604484558,0.01,0.0,0.0,0.0,0.01,0.0,0.0,0.0,0.01,0.0035678045824170113,-0.06682409346103668,-0.055455826222896576,0.01,0.0,0.0,0.0,0.01,0.0,0.0,0.0,0.01,-0.13370088843209668,-9.551593288913368,-1.1777312359586358,0.01,0.0,0.0,0.0,0.01,0.0,0.0,0.0,0.01
1700026481.5157232,51097,1700026481,495078656,gx5_link,0.658126175403595,0.10957790911197662,0.1418083757162094,0.7312681078910828,0.01,0.0,0.0,0.0,0.01,0.0,0.0,0.0,0.01,0.018232759088277817,-0.06386296451091766,-0.04585270583629608,0.01,0.0,0.0,0.0,0.01,0.0,0.0,0.0,0.01,-0.1754014654936269,-9.600439445146918,-1.0653530302088707,0.01,0.0,0.0,0.0,0.01,0.0,0.0,0.0,0.01
1700026481.5321698,51098,1700026481,505096448,gx5_link,0.6582801938056946,0.10952771455049515,0.14152894914150238,0.731191098690033,0.01,0.0,0.0,0.0,0.01,0.0,0.0,0.0,0.01,0.03234391286969185,-0.05308445543050766,-0.03090682066977024,0.01,0.0,0.0,0.0,0.01,0.0,0.0,0.0,0.01,-0.21241098039578646,-9.706137953937054,-0.9992360787659883,0.01,0.0,0.0,0.0,0.01,0.0,0.0,0.0,0.01
1700026481.532491,51099,1700026481,515110400,gx5_link,0.6584595441818237,0.10947971045970917,0.14136017858982086,0.7310695052146912,0.01,0.0,0.0,0.0,0.01,0.0,0.0,0.0,0.01,0.038742706179618835,-0.038497574627399445,-0.012577767483890057,0.01,0.0,0.0,0.0,0.01,0.0,0.0,0.0,0.01,-0.23554600972970946,-9.815912333863974,-0.9615066520914435,0.01,0.0,0.0,0.0,0.01,0.0,0.0,0.0,0.01
1700026481.544305,51100,1700026481,525126912,gx5_link,0.6586273312568665,0.10942032188177109,0.1412881761789322,0.7309411764144897,0.01,0.0,0.0,0.0,0.01,0.0,0.0,0.0,0.01,0.03770332410931587,-0.02716909535229206,0.000517801265232265,0.01,0.0,0.0,0.0,0.01,0.0,0.0,0.0,0.01,-0.25308307292610405,-9.86448376480937,-0.9785356744341551,0.01,0.0,0.0,0.0,0.01,0.0,0.0,0.0,0.01
1700026481.554503,51101,1700026481,535144960,gx5_link,0.6587749719619751,0.10934527963399887,0.1412453055381775,0.7308275699615479,0.01,0.0,0.0,0.0,0.01,0.0,0.0,0.0,0.01,0.032123126089572906,-0.02468346431851387,0.0076785217970609665,0.01,0.0,0.0,0.0,0.01,0.0,0.0,0.0,0.01,-0.2458170822448097,-9.870105696344375,-1.0072082997541874,0.01,0.0,0.0,0.0,0.01,0.0,0.0,0.0,0.01
1700026481.5629015,51102,1700026481,545159936,gx5_link,0.6588600873947144,0.1092386469244957,0.14118580520153046,0.7307782769203186,0.01,0.0,0.0,0.0,0.01,0.0,0.0,0.0,0.01,0.018961621448397636,-0.02840404585003853,0.00831272080540657,0.01,0.0,0.0,0.0,0.01,0.0,0.0,0.0,0.01,-0.24166295824004336,-9.909079277861117,-1.0743527676139026,0.01,0.0,0.0,0.0,0.01,0.0,0.0,0.0,0.01
1700026481.5927079,51103,1700026481,555183360,gx5_link,0.6588965058326721,0.10905575007200241,0.14112946391105652,0.7307836413383484,0.01,0.0,0.0,0.0,0.01,0.0,0.0,0.0,0.01,0.004396699368953705,-0.03724515438079834,0.015870574861764908,0.01,0.0,0.0,0.0,0.01,0.0,0.0,0.0,0.01,-0.24835124036492778,-9.929765507537127,-1.1193635834682731,0.01,0.0,0.0,0.0,0.01,0.0,0.0,0.0,0.01
1700026481.5927665,51104,1700026481,565201152,gx5_link,0.6589017510414124,0.10883434861898422,0.14106504619121552,0.73082435131073,0.01,0.0,0.0,0.0,0.01,0.0,0.0,0.0,0.01,-0.006867772433906794,-0.04438541457056999,0.01879103295505047,0.01,0.0,0.0,0.0,0.01,0.0,0.0,0.0,0.01,-0.25081878125593066,-9.893325243890285,-1.0810703123658896,0.01,0.0,0.0,0.0,0.01,0.0,0.0,0.0,0.01
1700026481.5963612,51105,1700026481,575216896,gx5_link,0.6588960289955139,0.10858496278524399,0.14101921021938324,0.7308754324913025,0.01,0.0,0.0,0.0,0.01,0.0,0.0,0.0,0.01,-0.013422919437289238,-0.04685395956039429,0.024115346372127533,0.01,0.0,0.0,0.0,0.01,0.0,0.0,0.0,0.01,-0.24414313941691068,-9.851341374641656,-1.0358215961024164,0.01,0.0,0.0,0.0,0.01,0.0,0.0,0.0,0.01
1700026481.6065295,51106,1700026481,585232896,gx5_link,0.6588786244392395,0.10833699256181717,0.1410106122493744,0.7309296131134033,0.01,0.0,0.0,0.0,0.01,0.0,0.0,0.0,0.01,-0.01706060767173767,-0.041881442070007324,0.029806846752762794,0.01,0.0,0.0,0.0,0.01,0.0,0.0,0.0,0.01,-0.2476141947946511,-9.873431625896691,-1.0309251292977482,0.01,0.0,0.0,0.0,0.01,0.0,0.0,0.0,0.01
1700026481.6162527,51107,1700026481,595250176,gx5_link,0.6588678956031799,0.10809581726789474,0.14109300076961517,0.7309590578079224,0.01,0.0,0.0,0.0,0.01,0.0,0.0,0.0,0.01,-0.014418892562389374,-0.03063417226076126,0.04273710399866104,0.01,0.0,0.0,0.0,0.01,0.0,0.0,0.0,0.01,-0.2507835272794589,-9.897166721749306,-1.0683731086824089,0.01,0.0,0.0,0.0,0.01,0.0,0.0,0.0,0.01
1700026481.622262,51108,1700026481,605264384,gx5_link,0.6588882803916931,0.10785774886608124,0.1412474811077118,0.7309460639953613,0.01,0.0,0.0,0.0,0.01,0.0,0.0,0.0,0.01,-0.004744144156575203,-0.02068154141306877,0.05323883891105652,0.01,0.0,0.0,0.0,0.01,0.0,0.0,0.0,0.01,-0.23978222252735867,-9.847238030976056,-1.1124748468678445,0.01,0.0,0.0,0.0,0.01,0.0,0.0,0.0,0.01
1700026481.6335895,51109,1700026481,615280384,gx5_link,0.6589328050613403,0.10763874650001526,0.1414032131433487,0.7309081554412842,0.01,0.0,0.0,0.0,0.01,0.0,0.0,0.0,0.01,0.005686793476343155,-0.017034020274877548,0.05398613587021828,0.01,0.0,0.0,0.0,0.01,0.0,0.0,0.0,0.01,-0.22888320910595356,-9.80414999987781,-1.2070182668499647,0.01,0.0,0.0,0.0,0.01,0.0,0.0,0.0,0.01
1700026481.6485245,51110,1700026481,625298176,gx5_link,0.6589934825897217,0.10740018635988235,0.14149239659309387,0.7308711409568787,0.01,0.0,0.0,0.0,0.01,0.0,0.0,0.0,0.01,0.011080138385295868,-0.025373714044690132,0.048143863677978516,0.01,0.0,0.0,0.0,0.01,0.0,0.0,0.0,0.01,-0.23980149348340926,-9.812949976927042,-1.279318656168133,0.01,0.0,0.0,0.0,0.01,0.0,0.0,0.0,0.01
1700026481.6518133,51111,1700026481,635311872,gx5_link,0.6590595245361328,0.10714346170425415,0.14152249693870544,0.7308434844017029,0.01,0.0,0.0,0.0,0.01,0.0,0.0,0.0,0.01,0.011746902018785477,-0.03425125777721405,0.04146069660782814,0.01,0.0,0.0,0.0,0.01,0.0,0.0,0.0,0.01,-0.2724931086538359,-9.810468096983433,-1.255486383551359,0.01,0.0,0.0,0.0,0.01,0.0,0.0,0.0,0.01
1700026481.6691277,51112,1700026481,645333504,gx5_link,0.6591295599937439,0.10691095143556595,0.14147387444972992,0.730823814868927,0.01,0.0,0.0,0.0,0.01,0.0,0.0,0.0,0.01,0.009440760128200054,-0.04263175651431084,0.026142798364162445,0.01,0.0,0.0,0.0,0.01,0.0,0.0,0.0,0.01,-0.2951600090193562,-9.738851306015253,-1.1548111097507179,0.01,0.0,0.0,0.0,0.01,0.0,0.0,0.0,0.01
1700026481.678954,51113,1700026481,655351808,gx5_link,0.6591932773590088,0.1067296639084816,0.14134442806243896,0.7308178544044495,0.01,0.0,0.0,0.0,0.01,0.0,0.0,0.0,0.01,0.00818715337663889,-0.04683316498994827,0.008154630661010742,0.01,0.0,0.0,0.0,0.01,0.0,0.0,0.0,0.01,-0.31477007909752425,-9.72111983449161,-1.059578246199712,0.01,0.0,0.0,0.0,0.01,0.0,0.0,0.0,0.01
1700026481.684607,51114,1700026481,665366784,gx5_link,0.6592444777488708,0.10660281032323837,0.14118175208568573,0.7308217287063599,0.01,0.0,0.0,0.0,0.01,0.0,0.0,0.0,0.01,0.0051072342321276665,-0.04570809379220009,-0.005621578078716993,0.01,0.0,0.0,0.0,0.01,0.0,0.0,0.0,0.01,-0.35954606328271327,-9.774735104823112,-1.0056132125824688,0.01,0.0,0.0,0.0,0.01,0.0,0.0,0.0,0.01
1700026481.6938288,51115,1700026481,675382528,gx5_link,0.6592804789543152,0.10651849955320358,0.14101818203926086,0.7308330535888672,0.01,0.0,0.0,0.0,0.01,0.0,0.0,0.0,0.01,0.0020320171024650335,-0.042401861399412155,-0.014677431434392929,0.01,0.0,0.0,0.0,0.01,0.0,0.0,0.0,0.01,-0.37384456468299027,-9.800170574852825,-0.961491600652784,0.01,0.0,0.0,0.0,0.01,0.0,0.0,0.0,0.01
1700026481.7059197,51116,1700026481,685399552,gx5_link,0.659336507320404,0.10645489394664764,0.14086498320102692,0.7308213114738464,0.01,0.0,0.0,0.0,0.01,0.0,0.0,0.0,0.01,0.0045881010591983795,-0.03790448606014252,-0.01610187627375126,0.01,0.0,0.0,0.0,0.01,0.0,0.0,0.0,0.01,-0.38290743045210834,-9.793359141272306,-0.8927791528239846,0.01,0.0,0.0,0.0,0.01,0.0,0.0,0.0,0.01
1700026481.714019,51117,1700026481,695413504,gx5_link,0.6593770980834961,0.10641610622406006,0.14069169759750366,0.730823814868927,0.01,0.0,0.0,0.0,0.01,0.0,0.0,0.0,0.01,0.002788796555250883,-0.03612228482961655,-0.023070568218827248,0.01,0.0,0.0,0.0,0.01,0.0,0.0,0.0,0.01,-0.37779480014611033,-9.771048525264858,-0.9278666136223822,0.01,0.0,0.0,0.0,0.01,0.0,0.0,0.0,0.01
1700026481.724865,51118,1700026481,705430784,gx5_link,0.6593745350837708,0.10639889538288116,0.14045464992523193,0.7308741211891174,0.01,0.0,0.0,0.0,0.01,0.0,0.0,0.0,0.01,-0.0062262830324471,-0.03914323449134827,-0.036881156265735626,0.01,0.0,0.0,0.0,0.01,0.0,0.0,0.0,0.01,-0.38805275745131074,-9.750545250940322,-0.9343832289747893,0.01,0.0,0.0,0.0,0.01,0.0,0.0,0.0,0.01
1700026481.735368,51119,1700026481,715449344,gx5_link,0.6593242287635803,0.10638707876205444,0.14015421271324158,0.7309789061546326,0.01,0.0,0.0,0.0,0.01,0.0,0.0,0.0,0.01,-0.015818653628230095,-0.04664524644613266,-0.047283053398132324,0.01,0.0,0.0,0.0,0.01,0.0,0.0,0.0,0.01,-0.38731680785957723,-9.79924293861389,-0.9806099964901804,0.01,0.0,0.0,0.0,0.01,0.0,0.0,0.0,0.01
1700026481.7473514,51120,1700026481,725468672,gx5_link,0.6592451333999634,0.10634934157133102,0.13982580602169037,0.7311186194419861,0.01,0.0,0.0,0.0,0.01,0.0,0.0,0.0,0.01,-0.02405238151550293,-0.05278945714235306,-0.05216008797287941,0.01,0.0,0.0,0.0,0.01,0.0,0.0,0.0,0.01,-0.3885810921743512,-9.80155530720949,-1.0143807486668228,0.01,0.0,0.0,0.0,0.01,0.0,0.0,0.0,0.01
1700026481.762254,51121,1700026481,737489408,gx5_link,0.6591605544090271,0.10631422698497772,0.1395167112350464,0.7312589883804321,0.01,0.0,0.0,0.0,0.01,0.0,0.0,0.0,0.01,-0.028771113604307175,-0.051842156797647476,-0.05077911540865898,0.01,0.0,0.0,0.0,0.01,0.0,0.0,0.0,0.01,-0.38248244650568813,-9.769950208634137,-0.9649236209280788,0.01,0.0,0.0,0.0,0.01,0.0,0.0,0.0,0.01
1700026481.766477,51122,1700026481,745507584,gx5_link,0.6590679287910461,0.10629604756832123,0.13924722373485565,0.731396496295929,0.01,0.0,0.0,0.0,0.01,0.0,0.0,0.0,0.01,-0.02954110875725746,-0.04592461138963699,-0.046779874712228775,0.01,0.0,0.0,0.0,0.01,0.0,0.0,0.0,0.01,-0.3751409246364608,-9.777430335256456,-0.9733546915996819,0.01,0.0,0.0,0.0,0.01,0.0,0.0,0.0,0.01
1700026481.7762735,51123,1700026481,755527424,gx5_link,0.6589763760566711,0.1062716692686081,0.13906100392341614,0.7315179705619812,0.01,0.0,0.0,0.0,0.01,0.0,0.0,0.0,0.01,-0.028371289372444153,-0.03588488698005676,-0.03418579325079918,0.01,0.0,0.0,0.0,0.01,0.0,0.0,0.0,0.01,-0.37276966546047474,-9.79609236562848,-0.989172584586963,0.01,0.0,0.0,0.0,0.01,0.0,0.0,0.0,0.01
1700026481.7851915,51124,1700026481,765542912,gx5_link,0.6588929891586304,0.10624366253614426,0.1389678418636322,0.7316148281097412,0.01,0.0,0.0,0.0,0.01,0.0,0.0,0.0,0.01,-0.02408970147371292,-0.022970695048570633,-0.019079653546214104,0.01,0.0,0.0,0.0,0.01,0.0,0.0,0.0,0.01,-0.35184462205991146,-9.793478383737803,-1.0343191556502134,0.01,0.0,0.0,0.0,0.01,0.0,0.0,0.0,0.01
1700026481.795267,51125,1700026481,775559936,gx5_link,0.6588146090507507,0.10622526705265045,0.13893455266952515,0.7316944003105164,0.01,0.0,0.0,0.0,0.01,0.0,0.0,0.0,0.01,-0.02164209634065628,-0.012657511979341507,-0.010325051844120026,0.01,0.0,0.0,0.0,0.01,0.0,0.0,0.0,0.01,-0.3082294618150219,-9.751638891395926,-1.096337658798322,0.01,0.0,0.0,0.0,0.01,0.0,0.0,0.0,0.01
1700026481.8053434,51126,1700026481,785578496,gx5_link,0.6587182283401489,0.10620835423469543,0.13892655074596405,0.7317851781845093,0.01,0.0,0.0,0.0,0.01,0.0,0.0,0.0,0.01,-0.02250884473323822,-0.006177123636007309,-0.004391116555780172,0.01,0.0,0.0,0.0,0.01,0.0,0.0,0.0,0.01,-0.28680373888332394,-9.738840784621239,-1.1720573550406843,0.01,0.0,0.0,0.0,0.01,0.0,0.0,0.0,0.01
1700026481.820152,51127,1700026481,795595264,gx5_link,0.6586125493049622,0.10616927593946457,0.1389441341161728,0.7318826913833618,0.01,0.0,0.0,0.0,0.01,0.0,0.0,0.0,0.01,-0.02464001253247261,-0.005609346088021994,0.0017947552260011435,0.01,0.0,0.0,0.0,0.01,0.0,0.0,0.0,0.01,-0.27207948635164647,-9.736124511399865,-1.1917860647961496,0.01,0.0,0.0,0.0,0.01,0.0,0.0,0.0,0.01
1700026481.8264172,51128,1700026481,805614080,gx5_link,0.6585029363632202,0.10611532628536224,0.138993039727211,0.7319798469543457,0.01,0.0,0.0,0.0,0.01,0.0,0.0,0.0,0.01,-0.027722101658582687,-0.0051031154580414295,0.007685888092964888,0.01,0.0,0.0,0.0,0.01,0.0,0.0,0.0,0.01,-0.26284029590124264,-9.69525181826353,-1.1910722174383699,0.01,0.0,0.0,0.0,0.01,0.0,0.0,0.0,0.01
1700026481.8358076,51129,1700026481,815632896,gx5_link,0.6583848595619202,0.10604776442050934,0.1390441656112671,0.7320860624313354,0.01,0.0,0.0,0.0,0.01,0.0,0.0,0.0,0.01,-0.030271777883172035,-0.007078090216964483,0.010070902295410633,0.01,0.0,0.0,0.0,0.01,0.0,0.0,0.0,0.01,-0.26344648163346573,-9.647238605722784,-1.2080676297724247,0.01,0.0,0.0,0.0,0.01,0.0,0.0,0.0,0.01
1700026481.8490622,51130,1700026481,825654016,gx5_link,0.658240795135498,0.10596434772014618,0.13907715678215027,0.7322214841842651,0.01,0.0,0.0,0.0,0.01,0.0,0.0,0.0,0.01,-0.035202186554670334,-0.009204283356666565,0.008797462098300457,0.01,0.0,0.0,0.0,0.01,0.0,0.0,0.0,0.01,-0.2946371541890316,-9.631883800202608,-1.2372542690292,0.01,0.0,0.0,0.0,0.01,0.0,0.0,0.0,0.01
1700026481.8556461,51131,1700026481,835672064,gx5_link,0.6580978631973267,0.1058657094836235,0.13910417258739471,0.732358992099762,0.01,0.0,0.0,0.0,0.01,0.0,0.0,0.0,0.01,-0.0368506982922554,-0.010711758397519588,0.007123891264200211,0.01,0.0,0.0,0.0,0.01,0.0,0.0,0.0,0.01,-0.3388853333741426,-9.609805823907255,-1.2419941570326685,0.01,0.0,0.0,0.0,0.01,0.0,0.0,0.0,0.01
1700026481.8663452,51132,1700026481,845691136,gx5_link,0.6579440832138062,0.10580440610647202,0.1391485184431076,0.7324975728988647,0.01,0.0,0.0,0.0,0.01,0.0,0.0,0.0,0.01,-0.038008153438568115,-0.004933876451104879,0.0040221749804914,0.01,0.0,0.0,0.0,0.01,0.0,0.0,0.0,0.01,-0.3552435072505846,-9.529907526805996,-1.2444276677899062,0.01,0.0,0.0,0.0,0.01,0.0,0.0,0.0,0.01
1700026481.8765717,51133,1700026481,855706368,gx5_link,0.6577857732772827,0.10581034421920776,0.13919369876384735,0.7326303124427795,0.01,0.0,0.0,0.0,0.01,0.0,0.0,0.0,0.01,-0.036280062049627304,0.0043247719295322895,-0.003231918439269066,0.01,0.0,0.0,0.0,0.01,0.0,0.0,0.0,0.01,-0.34388164382409303,-9.464719307580589,-1.2389863535188137,0.01,0.0,0.0,0.0,0.01,0.0,0.0,0.0,0.01
1700026481.8868666,51134,1700026481,865723392,gx5_link,0.65763920545578,0.10588058829307556,0.1392742097377777,0.7327365279197693,0.01,0.0,0.0,0.0,0.01,0.0,0.0,0.0,0.01,-0.02905428037047386,0.018618755042552948,-0.004340795800089836,0.01,0.0,0.0,0.0,0.01,0.0,0.0,0.0,0.01,-0.3144258687697351,-9.46130453070104,-1.274673168449849,0.01,0.0,0.0,0.0,0.01,0.0,0.0,0.0,0.01
1700026481.8948286,51135,1700026481,875741696,gx5_link,0.6575206518173218,0.10599712282419205,0.139395073056221,0.7328029870986938,0.01,0.0,0.0,0.0,0.01,0.0,0.0,0.0,0.01,-0.0159306637942791,0.030127791687846184,-0.0017331105191260576,0.01,0.0,0.0,0.0,0.01,0.0,0.0,0.0,0.01,-0.27445231643021106,-9.471997774150967,-1.3555920407705009,0.01,0.0,0.0,0.0,0.01,0.0,0.0,0.0,0.01
1700026481.9052446,51136,1700026481,885758208,gx5_link,0.6574438810348511,0.10612227022647858,0.13956785202026367,0.7328208684921265,0.01,0.0,0.0,0.0,0.01,0.0,0.0,0.0,0.01,-0.002321959240362048,0.038166094571352005,0.006390603259205818,0.01,0.0,0.0,0.0,0.01,0.0,0.0,0.0,0.01,-0.24093581300927325,-9.44896176647842,-1.4600721136815844,0.01,0.0,0.0,0.0,0.01,0.0,0.0,0.0,0.01
1700026481.9165432,51137,1700026481,895777024,gx5_link,0.6574210524559021,0.10618920624256134,0.13972514867782593,0.7328016757965088,0.01,0.0,0.0,0.0,0.01,0.0,0.0,0.0,0.01,0.012618652544915676,0.03145197778940201,0.01310531236231327,0.01,0.0,0.0,0.0,0.01,0.0,0.0,0.0,0.01,-0.2360748924420215,-9.392959893271327,-1.5473726498633622,0.01,0.0,0.0,0.0,0.01,0.0,0.0,0.0,0.01
1700026481.9257376,51138,1700026481,905796096,gx5_link,0.657466471195221,0.10624253749847412,0.13982437551021576,0.7327343821525574,0.01,0.0,0.0,0.0,0.01,0.0,0.0,0.0,0.01,0.027185875922441483,0.022591833025217056,0.009915217757225037,0.01,0.0,0.0,0.0,0.01,0.0,0.0,0.0,0.01,-0.25212272172765804,-9.357882150149345,-1.4861827064938842,0.01,0.0,0.0,0.0,0.01,0.0,0.0,0.0,0.01
1700026481.9477546,51139,1700026481,915817216,gx5_link,0.6575862169265747,0.1063157469034195,0.13990601897239685,0.7326006889343262,0.01,0.0,0.0,0.0,0.01,0.0,0.0,0.0,0.01,0.03941458836197853,0.019730590283870697,0.00863918662071228,0.01,0.0,0.0,0.0,0.01,0.0,0.0,0.0,0.01,-0.2668224243399687,-9.360680840957164,-1.2792043821386991,0.01,0.0,0.0,0.0,0.01,0.0,0.0,0.0,0.01
1700026481.947778,51140,1700026481,925835008,gx5_link,0.65776526927948,0.10643427073955536,0.14003914594650269,0.732397198677063,0.01,0.0,0.0,0.0,0.01,0.0,0.0,0.0,0.01,0.050405483692884445,0.029284054413437843,0.012947821989655495,0.01,0.0,0.0,0.0,0.01,0.0,0.0,0.0,0.01,-0.2596750368033536,-9.389693000429869,-1.060891009298712,0.01,0.0,0.0,0.0,0.01,0.0,0.0,0.0,0.01
1700026481.9562788,51141,1700026481,935854336,gx5_link,0.6579955816268921,0.10661718249320984,0.1402895748615265,0.7321157455444336,0.01,0.0,0.0,0.0,0.01,0.0,0.0,0.0,0.01,0.06365948170423508,0.04956240952014923,0.02493765950202942,0.01,0.0,0.0,0.0,0.01,0.0,0.0,0.0,0.01,-0.2657254594161175,-9.465878999009728,-0.9400682158086449,0.01,0.0,0.0,0.0,0.01,0.0,0.0,0.0,0.01
1700026481.961647,51142,1700026481,945869312,gx5_link,0.6582790017127991,0.10679061710834503,0.14065223932266235,0.7317660450935364,0.01,0.0,0.0,0.0,0.01,0.0,0.0,0.0,0.01,0.07933338731527328,0.0642552524805069,0.04376279562711716,0.01,0.0,0.0,0.0,0.01,0.0,0.0,0.0,0.01,-0.24440062130931764,-9.517039861926436,-0.9713776924382894,0.01,0.0,0.0,0.0,0.01,0.0,0.0,0.0,0.01
1700026481.9752953,51143,1700026481,955886080,gx5_link,0.6586219072341919,0.1069183275103569,0.1410617083311081,0.7313599586486816,0.01,0.0,0.0,0.0,0.01,0.0,0.0,0.0,0.01,0.09574887901544571,0.06556659936904907,0.05934396758675575,0.01,0.0,0.0,0.0,0.01,0.0,0.0,0.0,0.01,-0.23523893480822441,-9.536701424729824,-1.037751833512634,0.01,0.0,0.0,0.0,0.01,0.0,0.0,0.0,0.01
1700026481.98544,51144,1700026481,965904384,gx5_link,0.6590041518211365,0.10699308663606644,0.14142420887947083,0.7309345006942749,0.01,0.0,0.0,0.0,0.01,0.0,0.0,0.0,0.01,0.10699953138828278,0.053417474031448364,0.0633029192686081,0.01,0.0,0.0,0.0,0.01,0.0,0.0,0.0,0.01,-0.23585483821686357,-9.553533317065238,-1.1223417224962264,0.01,0.0,0.0,0.0,0.01,0.0,0.0,0.0,0.01
1700026481.9950125,51145,1700026481,975920896,gx5_link,0.6594074964523315,0.10702157020568848,0.14167636632919312,0.7305176854133606,0.01,0.0,0.0,0.0,0.01,0.0,0.0,0.0,0.01,0.11032238602638245,0.0342111736536026,0.0549141950905323,0.01,0.0,0.0,0.0,0.01,0.0,0.0,0.0,0.01,-0.2488060531940311,-9.607043373456596,-1.1061278889939188,0.01,0.0,0.0,0.0,0.01,0.0,0.0,0.0,0.01
1700026482.0057347,51146,1700026481,985938944,gx5_link,0.6598076224327087,0.10702840238809586,0.14185260236263275,0.7301210165023804,0.01,0.0,0.0,0.0,0.01,0.0,0.0,0.0,0.01,0.10702170431613922,0.019419584423303604,0.04609529301524162,0.01,0.0,0.0,0.0,0.01,0.0,0.0,0.0,0.01,-0.27092363084740934,-9.683767132174967,-1.0260475133240223,0.01,0.0,0.0,0.0,0.01,0.0,0.0,0.0,0.01
1700026482.0150979,51147,1700026481,995957248,gx5_link,0.6601916551589966,0.10700783133506775,0.14197096228599548,0.729753851890564,0.01,0.0,0.0,0.0,0.01,0.0,0.0,0.0,0.01,0.09859902411699295,0.007463797926902771,0.039914850145578384,0.01,0.0,0.0,0.0,0.01,0.0,0.0,0.0,0.01,-0.2923309048069641,-9.792964004474877,-0.9795306768208741,0.01,0.0,0.0,0.0,0.01,0.0,0.0,0.0,0.01
1700026482.0285244,51148,1700026482,5977600,gx5_link,0.6605403423309326,0.10696757584810257,0.1420847624540329,0.7294219136238098,0.01,0.0,0.0,0.0,0.01,0.0,0.0,0.0,0.01,0.09036452323198318,0.00258429441601038,0.03841413930058479,0.01,0.0,0.0,0.0,0.01,0.0,0.0,0.0,0.01,-0.32741310490835457,-9.877224003916979,-1.0178020283523947,0.01,0.0,0.0,0.0,0.01,0.0,0.0,0.0,0.01
1700026482.0381556,51149,1700026482,15994880,gx5_link,0.6608281135559082,0.10688324272632599,0.14218872785568237,0.7291533350944519,0.01,0.0,0.0,0.0,0.01,0.0,0.0,0.0,0.01,0.07619646191596985,-0.0036592676769942045,0.03739611804485321,0.01,0.0,0.0,0.0,0.01,0.0,0.0,0.0,0.01,-0.3625113793617114,-9.907073198735713,-1.0640856406215577,0.01,0.0,0.0,0.0,0.01,0.0,0.0,0.0,0.01
1700026482.0481496,51150,1700026482,26013696,gx5_link,0.6610497832298279,0.10677734017372131,0.14227351546287537,0.7289513945579529,0.01,0.0,0.0,0.0,0.01,0.0,0.0,0.0,0.01,0.060994718223810196,-0.00947006419301033,0.033388443291187286,0.01,0.0,0.0,0.0,0.01,0.0,0.0,0.0,0.01,-0.4103967277390882,-9.933221200948953,-1.1254162345707417,0.01,0.0,0.0,0.0,0.01,0.0,0.0,0.0,0.01
1700026482.0537963,51151,1700026482,36028416,gx5_link,0.6612164974212646,0.10663475096225739,0.14234422147274017,0.728807270526886,0.01,0.0,0.0,0.0,0.01,0.0,0.0,0.0,0.01,0.045403171330690384,-0.015295354649424553,0.03130664303898811,0.01,0.0,0.0,0.0,0.01,0.0,0.0,0.0,0.01,-0.4679574112281203,-9.949189169931412,-1.1915635080866516,0.01,0.0,0.0,0.0,0.01,0.0,0.0,0.0,0.01
1700026482.0644646,51152,1700026482,46045952,gx5_link,0.6613327860832214,0.10647746920585632,0.14239630103111267,0.7287145256996155,0.01,0.0,0.0,0.0,0.01,0.0,0.0,0.0,0.01,0.031217075884342194,-0.01867068186402321,0.02665707841515541,0.01,0.0,0.0,0.0,0.01,0.0,0.0,0.0,0.01,-0.533625303729251,-9.938403572022914,-1.1775227808397262,0.01,0.0,0.0,0.0,0.01,0.0,0.0,0.0,0.01
1700026482.0758593,51153,1700026482,56064256,gx5_link,0.6614057421684265,0.10632748901844025,0.14244772493839264,0.7286602258682251,0.01,0.0,0.0,0.0,0.01,0.0,0.0,0.0,0.01,0.01662910357117653,-0.01852382905781269,0.02132018841803074,0.01,0.0,0.0,0.0,0.01,0.0,0.0,0.0,0.01,-0.5820185650961474,-9.904142405980824,-1.0986897018171846,0.01,0.0,0.0,0.0,0.01,0.0,0.0,0.0,0.01
1700026482.0848768,51154,1700026482,66080768,gx5_link,0.6614177823066711,0.10625157505273819,0.14251114428043365,0.7286478281021118,0.01,0.0,0.0,0.0,0.01,0.0,0.0,0.0,0.01,0.0012243628734722733,-0.008151235990226269,0.01065025944262743,0.01,0.0,0.0,0.0,0.01,0.0,0.0,0.0,0.01,-0.6177371999375522,-9.857119958043098,-1.047888027601689,0.01,0.0,0.0,0.0,0.01,0.0,0.0,0.0,0.01
1700026482.096601,51155,1700026482,76097536,gx5_link,0.6613447070121765,0.10629650205373764,0.14258234202861786,0.7286937236785889,0.01,0.0,0.0,0.0,0.01,0.0,0.0,0.0,0.01,-0.015371013432741165,0.010053577832877636,-0.007563578896224499,0.01,0.0,0.0,0.0,0.01,0.0,0.0,0.0,0.01,-0.6183667300127447,-9.79119056506157,-1.0158871346417815,0.01,0.0,0.0,0.0,0.01,0.0,0.0,0.0,0.01
1700026482.1052437,51156,1700026482,86115584,gx5_link,0.6611954569816589,0.10647261142730713,0.14267723262310028,0.7287848591804504,0.01,0.0,0.0,0.0,0.01,0.0,0.0,0.0,0.01,-0.030563771724700928,0.03362608700990677,-0.02229366824030876,0.01,0.0,0.0,0.0,0.01,0.0,0.0,0.0,0.01,-0.6037888636818155,-9.771277657845616,-0.9538592791434377,0.01,0.0,0.0,0.0,0.01,0.0,0.0,0.0,0.01
1700026482.11762,51157,1700026482,96135936,gx5_link,0.6610124111175537,0.10677608847618103,0.14287203550338745,0.7288684248924255,0.01,0.0,0.0,0.0,0.01,0.0,0.0,0.0,0.01,-0.03458234295248985,0.0650545135140419,-0.024213407188653946,0.01,0.0,0.0,0.0,0.01,0.0,0.0,0.0,0.01,-0.5637510869996621,-9.750682029062508,-0.9417596760269253,0.01,0.0,0.0,0.0,0.01,0.0,0.0,0.0,0.01
1700026482.1267657,51158,1700026482,106154496,gx5_link,0.6608271598815918,0.10718819499015808,0.14317716658115387,0.7289159297943115,0.01,0.0,0.0,0.0,0.01,0.0,0.0,0.0,0.01,-0.02898321859538555,0.09650193154811859,-0.02111785113811493,0.01,0.0,0.0,0.0,0.01,0.0,0.0,0.0,0.01,-0.4919953259522095,-9.68307272017002,-0.9869155994404106,0.01,0.0,0.0,0.0,0.01,0.0,0.0,0.0,0.01
1700026482.1360538,51159,1700026482,116173056,gx5_link,0.6606466174125671,0.10769005119800568,0.14358630776405334,0.7289251685142517,0.01,0.0,0.0,0.0,0.01,0.0,0.0,0.0,0.01,-0.021102484315633774,0.1262202262878418,-0.01446258183568716,0.01,0.0,0.0,0.0,0.01,0.0,0.0,0.0,0.01,-0.38157552426122127,-9.55453635662794,-1.009421080432832,0.01,0.0,0.0,0.0,0.01,0.0,0.0,0.0,0.01
1700026482.1430702,51160,1700026482,126187776,gx5_link,0.6605003476142883,0.10831629484891891,0.14405463635921478,0.728872537612915,0.01,0.0,0.0,0.0,0.01,0.0,0.0,0.0,0.01,-0.0067170364782214165,0.1526319533586502,-0.014048018492758274,0.01,0.0,0.0,0.0,0.01,0.0,0.0,0.0,0.01,-0.2595991768218577,-9.469376193475723,-1.035143842971325,0.01,0.0,0.0,0.0,0.01,0.0,0.0,0.0,0.01
1700026482.156329,51161,1700026482,136205568,gx5_link,0.6603713631629944,0.10899641364812851,0.14452943205833435,0.7287939786911011,0.01,0.0,0.0,0.0,0.01,0.0,0.0,0.0,0.01,0.004891628865152597,0.16297921538352966,-0.015632474794983864,0.01,0.0,0.0,0.0,0.01,0.0,0.0,0.0,0.01,-0.14998200588379987,-9.415664477032422,-1.1277028842031955,0.01,0.0,0.0,0.0,0.01,0.0,0.0,0.0,0.01
1700026482.1657908,51162,1700026482,146224384,gx5_link,0.6602733731269836,0.10967043042182922,0.14491109549999237,0.728705883026123,0.01,0.0,0.0,0.0,0.01,0.0,0.0,0.0,0.01,0.016225770115852356,0.1537131518125534,-0.02572888880968094,0.01,0.0,0.0,0.0,0.01,0.0,0.0,0.0,0.01,-0.10323771730032749,-9.419027815985679,-1.2572580693989992,0.01,0.0,0.0,0.0,0.01,0.0,0.0,0.0,0.01
1700026482.1739526,51163,1700026482,156240128,gx5_link,0.6602060198783875,0.11029302328824997,0.14513058960437775,0.7286292314529419,0.01,0.0,0.0,0.0,0.01,0.0,0.0,0.0,0.01,0.023984335362911224,0.127395361661911,-0.039970822632312775,0.01,0.0,0.0,0.0,0.01,0.0,0.0,0.0,0.01,-0.08474032117179595,-9.420157112276554,-1.3024531557790935,0.01,0.0,0.0,0.0,0.01,0.0,0.0,0.0,0.01
1700026482.185233,51164,1700026482,166256896,gx5_link,0.6601852178573608,0.11087426543235779,0.14517691731452942,0.7285506725311279,0.01,0.0,0.0,0.0,0.01,0.0,0.0,0.0,0.01,0.030902178958058357,0.09768348932266235,-0.058011580258607864,0.01,0.0,0.0,0.0,0.01,0.0,0.0,0.0,0.01,-0.05562931813423056,-9.391483975499868,-1.2399997683450579,0.01,0.0,0.0,0.0,0.01,0.0,0.0,0.0,0.01
1700026482.1955512,51165,1700026482,176274944,gx5_link,0.6601951122283936,0.11145160347223282,0.14505362510681152,0.7284781336784363,0.01,0.0,0.0,0.0,0.01,0.0,0.0,0.0,0.01,0.0357748344540596,0.07376062870025635,-0.07961414754390717,0.01,0.0,0.0,0.0,0.01,0.0,0.0,0.0,0.01,-0.021715785069589037,-9.404991107326746,-1.2108000504110008,0.01,0.0,0.0,0.0,0.01,0.0,0.0,0.0,0.01
1700026482.2086666,51166,1700026482,186295296,gx5_link,0.6602393388748169,0.11199726164340973,0.14481066167354584,0.7284027934074402,0.01,0.0,0.0,0.0,0.01,0.0,0.0,0.0,0.01,0.044231873005628586,0.052494317293167114,-0.09165608882904053,0.01,0.0,0.0,0.0,0.01,0.0,0.0,0.0,0.01,0.013572502380399963,-9.472912550908326,-1.1948369037341326,0.01,0.0,0.0,0.0,0.01,0.0,0.0,0.0,0.01
1700026482.2307758,51167,1700026482,196313600,gx5_link,0.6603357791900635,0.11248641461133957,0.14449483156204224,0.7283027172088623,0.01,0.0,0.0,0.0,0.01,0.0,0.0,0.0,0.01,0.05646023899316788,0.03368455171585083,-0.0943416878581047,0.01,0.0,0.0,0.0,0.01,0.0,0.0,0.0,0.01,0.03732023395230062,-9.5370994841367,-1.2439619499742984,0.01,0.0,0.0,0.0,0.01,0.0,0.0,0.0,0.01
1700026482.2308002,51168,1700026482,206332160,gx5_link,0.6605021357536316,0.11286976933479309,0.14412999153137207,0.7281647324562073,0.01,0.0,0.0,0.0,0.01,0.0,0.0,0.0,0.01,0.07036437094211578,0.010149583220481873,-0.08632054924964905,0.01,0.0,0.0,0.0,0.01,0.0,0.0,0.0,0.01,0.05826139737060293,-9.559811082160472,-1.2559879033327102,0.01,0.0,0.0,0.0,0.01,0.0,0.0,0.0,0.01
1700026482.2338233,51169,1700026482,216346368,gx5_link,0.6607469916343689,0.11321225017309189,0.14372596144676208,0.727969229221344,0.01,0.0,0.0,0.0,0.01,0.0,0.0,0.0,0.01,0.08905909210443497,-0.004367191344499588,-0.08357997983694077,0.01,0.0,0.0,0.0,0.01,0.0,0.0,0.0,0.01,0.03727216159345116,-9.569096796900034,-1.302839378617704,0.01,0.0,0.0,0.0,0.01,0.0,0.0,0.0,0.01
1700026482.2445462,51170,1700026482,226363392,gx5_link,0.6610821485519409,0.11347486078739166,0.14330431818962097,0.7277071475982666,0.01,0.0,0.0,0.0,0.01,0.0,0.0,0.0,0.01,0.10484971106052399,-0.01823122426867485,-0.074066162109375,0.01,0.0,0.0,0.0,0.01,0.0,0.0,0.0,0.01,-0.00014656486808380578,-9.618804538398981,-1.2194961286943404,0.01,0.0,0.0,0.0,0.01,0.0,0.0,0.0,0.01
1700026482.256443,51171,1700026482,236381952,gx5_link,0.6614755988121033,0.11366890370845795,0.14288288354873657,0.7274022102355957,0.01,0.0,0.0,0.0,0.01,0.0,0.0,0.0,0.01,0.11618965864181519,-0.029903557151556015,-0.06367719173431396,0.01,0.0,0.0,0.0,0.01,0.0,0.0,0.0,0.01,-0.044414274733327326,-9.701419693243503,-1.1269037697147577,0.01,0.0,0.0,0.0,0.01,0.0,0.0,0.0,0.01
1700026482.265887,51172,1700026482,246397952,gx5_link,0.6619157791137695,0.11382526159286499,0.14253003895282745,0.7270464301109314,0.01,0.0,0.0,0.0,0.01,0.0,0.0,0.0,0.01,0.1227368488907814,-0.030167507007718086,-0.04893186688423157,0.01,0.0,0.0,0.0,0.01,0.0,0.0,0.0,0.01,-0.09910102848755195,-9.789407773298025,-1.0106552984029054,0.01,0.0,0.0,0.0,0.01,0.0,0.0,0.0,0.01
1700026482.278482,51173,1700026482,259411456,gx5_link,0.6623978018760681,0.11395194381475449,0.14229172468185425,0.72663414478302,0.01,0.0,0.0,0.0,0.01,0.0,0.0,0.0,0.01,0.12861447036266327,-0.02129659801721573,-0.028482016175985336,0.01,0.0,0.0,0.0,0.01,0.0,0.0,0.0,0.01,-0.15369845999050885,-9.863422273057699,-0.8965807370640337,0.01,0.0,0.0,0.0,0.01,0.0,0.0,0.0,0.01
1700026482.288736,51174,1700026482,269426176,gx5_link,0.6628833413124084,0.11403466016054153,0.14217205345630646,0.7262017130851746,0.01,0.0,0.0,0.0,0.01,0.0,0.0,0.0,0.01,0.12881791591644287,-0.013518358580768108,-0.010594782419502735,0.01,0.0,0.0,0.0,0.01,0.0,0.0,0.0,0.01,-0.23668118777209893,-9.872364288926123,-0.8539807817436754,0.01,0.0,0.0,0.0,0.01,0.0,0.0,0.0,0.01
1700026482.299631,51175,1700026482,279443456,gx5_link,0.6633583903312683,0.1141219213604927,0.14209070801734924,0.7257699966430664,0.01,0.0,0.0,0.0,0.01,0.0,0.0,0.0,0.01,0.1268886774778366,-0.0065264226868748665,-0.005783975124359131,0.01,0.0,0.0,0.0,0.01,0.0,0.0,0.0,0.01,-0.3061378232980147,-9.847041631621122,-0.8046494723416865,0.01,0.0,0.0,0.0,0.01,0.0,0.0,0.0,0.01
1700026482.3084235,51176,1700026482,289457408,gx5_link,0.6638422012329102,0.11426887661218643,0.14207105338573456,0.7253082990646362,0.01,0.0,0.0,0.0,0.01,0.0,0.0,0.0,0.01,0.1262347251176834,0.0075837429612874985,-0.004171605687588453,0.01,0.0,0.0,0.0,0.01,0.0,0.0,0.0,0.01,-0.36853337959758936,-9.872029942405224,-0.670897712238878,0.01,0.0,0.0,0.0,0.01,0.0,0.0,0.0,0.01
1700026482.322009,51177,1700026482,299473152,gx5_link,0.6643207669258118,0.11447884887456894,0.14218606054782867,0.7248142957687378,0.01,0.0,0.0,0.0,0.01,0.0,0.0,0.0,0.01,0.12516498565673828,0.03434112295508385,0.004984094761312008,0.01,0.0,0.0,0.0,0.01,0.0,0.0,0.0,0.01,-0.4170994402481243,-9.932091904658078,-0.5555110819207504,0.01,0.0,0.0,0.0,0.01,0.0,0.0,0.0,0.01
1700026482.328325,51178,1700026482,309490688,gx5_link,0.664791464805603,0.1147344782948494,0.14244940876960754,0.7242904305458069,0.01,0.0,0.0,0.0,0.01,0.0,0.0,0.0,0.01,0.12670356035232544,0.06091494858264923,0.020801100879907608,0.01,0.0,0.0,0.0,0.01,0.0,0.0,0.0,0.01,-0.4453790476625785,-9.932434434485435,-0.5567423772813752,0.01,0.0,0.0,0.0,0.01,0.0,0.0,0.0,0.01
1700026482.3337245,51179,1700026482,319503360,gx5_link,0.6652695536613464,0.11502794921398163,0.1428389847278595,0.723727822303772,0.01,0.0,0.0,0.0,0.01,0.0,0.0,0.0,0.01,0.1347104012966156,0.08607357740402222,0.03408423066139221,0.01,0.0,0.0,0.0,0.01,0.0,0.0,0.0,0.01,-0.4586283322708681,-9.895670345711707,-0.5942945476928726,0.01,0.0,0.0,0.0,0.01,0.0,0.0,0.0,0.01
1700026482.34548,51180,1700026482,329517824,gx5_link,0.6658095717430115,0.11536216735839844,0.14336960017681122,0.7230729460716248,0.01,0.0,0.0,0.0,0.01,0.0,0.0,0.0,0.01,0.15059438347816467,0.11001080274581909,0.05204619839787483,0.01,0.0,0.0,0.0,0.01,0.0,0.0,0.0,0.01,-0.48996027646064755,-9.875788418155908,-0.5613769052142277,0.01,0.0,0.0,0.0,0.01,0.0,0.0,0.0,0.01
1700026482.3572276,51181,1700026482,339534336,gx5_link,0.6664366126060486,0.11574284732341766,0.1440308690071106,0.7223026156425476,0.01,0.0,0.0,0.0,0.01,0.0,0.0,0.0,0.01,0.17562434077262878,0.13394016027450562,0.06973909586668015,0.01,0.0,0.0,0.0,0.01,0.0,0.0,0.0,0.01,-0.5036852522892877,-9.832439105772972,-0.5245804120082408,0.01,0.0,0.0,0.0,0.01,0.0,0.0,0.0,0.01
1700026482.372706,51182,1700026482,349549824,gx5_link,0.6671710014343262,0.11614241451025009,0.1448284238576889,0.7214003801345825,0.01,0.0,0.0,0.0,0.01,0.0,0.0,0.0,0.01,0.20597226917743683,0.15526050329208374,0.09057385474443436,0.01,0.0,0.0,0.0,0.01,0.0,0.0,0.0,0.01,-0.5791400870503858,-9.890897139960527,-0.5212500985417515,0.01,0.0,0.0,0.0,0.01,0.0,0.0,0.0,0.01
1700026482.3767946,51183,1700026482,359566336,gx5_link,0.6680126190185547,0.11659544706344604,0.1458006054162979,0.7203518748283386,0.01,0.0,0.0,0.0,0.01,0.0,0.0,0.0,0.01,0.23490479588508606,0.18486528098583221,0.11233282089233398,0.01,0.0,0.0,0.0,0.01,0.0,0.0,0.0,0.01,-0.6140064159113914,-9.853146378237009,-0.46787079239059237,0.01,0.0,0.0,0.0,0.01,0.0,0.0,0.0,0.01
1700026482.3879616,51184,1700026482,369583360,gx5_link,0.6688998341560364,0.11719795316457748,0.14690066874027252,0.7192064523696899,0.01,0.0,0.0,0.0,0.01,0.0,0.0,0.0,0.01,0.2551007568836212,0.2247466742992401,0.11802873015403748,0.01,0.0,0.0,0.0,0.01,0.0,0.0,0.0,0.01,-0.579075716577284,-9.719935008621215,-0.3558077900698408,0.01,0.0,0.0,0.0,0.01,0.0,0.0,0.0,0.01
1700026482.394573,51185,1700026482,379597312,gx5_link,0.6698158979415894,0.11798630654811859,0.14809060096740723,0.7179798483848572,0.01,0.0,0.0,0.0,0.01,0.0,0.0,0.0,0.01,0.27378830313682556,0.26595988869667053,0.1150398999452591,0.01,0.0,0.0,0.0,0.01,0.0,0.0,0.0,0.01,-0.5190556207047775,-9.701769237333535,-0.3580599529108032,0.01,0.0,0.0,0.0,0.01,0.0,0.0,0.0,0.01
1700026482.4056258,51186,1700026482,389612544,gx5_link,0.6706898212432861,0.11889003962278366,0.1492987871170044,0.7167637348175049,0.01,0.0,0.0,0.0,0.01,0.0,0.0,0.0,0.01,0.28181323409080505,0.28941258788108826,0.10498548299074173,0.01,0.0,0.0,0.0,0.01,0.0,0.0,0.0,0.01,-0.4356303185211494,-9.708086749917268,-0.6268892052948475,0.01,0.0,0.0,0.0,0.01,0.0,0.0,0.0,0.01
1700026482.4218917,51187,1700026482,399630080,gx5_link,0.6714845895767212,0.11981809884309769,0.15035299956798553,0.7156438827514648,0.01,0.0,0.0,0.0,0.01,0.0,0.0,0.0,0.01,0.27634769678115845,0.27975380420684814,0.07786493748426437,0.01,0.0,0.0,0.0,0.01,0.0,0.0,0.0,0.01,-0.36637579970490186,-9.677018826958536,-0.9378172220114618,0.01,0.0,0.0,0.0,0.01,0.0,0.0,0.0,0.01
1700026482.4238138,51188,1700026482,409643008,gx5_link,0.672177791595459,0.12072710692882538,0.1510808765888214,0.7146863341331482,0.01,0.0,0.0,0.0,0.01,0.0,0.0,0.0,0.01,0.2580261826515198,0.24000877141952515,0.031884681433439255,0.01,0.0,0.0,0.0,0.01,0.0,0.0,0.0,0.01,-0.338553799864836,-9.630030281290411,-1.164214678716287,0.01,0.0,0.0,0.0,0.01,0.0,0.0,0.0,0.01
1700026482.434915,51189,1700026482,419657472,gx5_link,0.6728200912475586,0.12159153819084167,0.1514327973127365,0.7138604521751404,0.01,0.0,0.0,0.0,0.01,0.0,0.0,0.0,0.01,0.24339014291763306,0.18790172040462494,-0.018522311002016068,0.01,0.0,0.0,0.0,0.01,0.0,0.0,0.0,0.01,-0.3391716029696166,-9.631104048001765,-1.1482338502522558,0.01,0.0,0.0,0.0,0.01,0.0,0.0,0.0,0.01
1700026482.447582,51190,1700026482,429674240,gx5_link,0.6735009551048279,0.12245970964431763,0.15153178572654724,0.71304851770401,0.01,0.0,0.0,0.0,0.01,0.0,0.0,0.0,0.01,0.239812433719635,0.15028704702854156,-0.05663345009088516,0.01,0.0,0.0,0.0,0.01,0.0,0.0,0.0,0.01,-0.3575511996710673,-9.702239192932844,-0.9084236620057373,0.01,0.0,0.0,0.0,0.01,0.0,0.0,0.0,0.01
1700026482.4568388,51191,1700026482,439689472,gx5_link,0.6741948127746582,0.12336350232362747,0.15152022242546082,0.7122390866279602,0.01,0.0,0.0,0.0,0.01,0.0,0.0,0.0,0.01,0.23581397533416748,0.13505661487579346,-0.08033213019371033,0.01,0.0,0.0,0.0,0.01,0.0,0.0,0.0,0.01,-0.35489319597557184,-9.764981188049912,-0.6386383144732565,0.01,0.0,0.0,0.0,0.01,0.0,0.0,0.0,0.01
1700026482.4767492,51192,1700026482,449704704,gx5_link,0.6748451590538025,0.12431956827640533,0.15149235725402832,0.7114623785018921,0.01,0.0,0.0,0.0,0.01,0.0,0.0,0.0,0.01,0.22413420677185059,0.13831929862499237,-0.0924411490559578,0.01,0.0,0.0,0.0,0.01,0.0,0.0,0.0,0.01,-0.33982126251738515,-9.85931776034832,-0.47468825385309754,0.01,0.0,0.0,0.0,0.01,0.0,0.0,0.0,0.01
1700026482.4796317,51193,1700026482,459722240,gx5_link,0.675471842288971,0.12527546286582947,0.15152737498283386,0.7106921672821045,0.01,0.0,0.0,0.0,0.01,0.0,0.0,0.0,0.01,0.21909219026565552,0.14463117718696594,-0.08692647516727448,0.01,0.0,0.0,0.0,0.01,0.0,0.0,0.0,0.01,-0.3237559706402942,-9.910125572043656,-0.4915396546065807,0.01,0.0,0.0,0.0,0.01,0.0,0.0,0.0,0.01
1700026482.4893017,51194,1700026482,469736448,gx5_link,0.6760720014572144,0.12619711458683014,0.1515781581401825,0.7099472880363464,0.01,0.0,0.0,0.0,0.01,0.0,0.0,0.0,0.01,0.21371430158615112,0.14290258288383484,-0.08361955732107162,0.01,0.0,0.0,0.0,0.01,0.0,0.0,0.0,0.01,-0.31172599869389084,-9.869351663106679,-0.5639615148799494,0.01,0.0,0.0,0.0,0.01,0.0,0.0,0.0,0.01
1700026482.4993527,51195,1700026482,479751936,gx5_link,0.676605761051178,0.12711241841316223,0.15153011679649353,0.7092853784561157,0.01,0.0,0.0,0.0,0.01,0.0,0.0,0.0,0.01,0.19618868827819824,0.1311292052268982,-0.09692274034023285,0.01,0.0,0.0,0.0,0.01,0.0,0.0,0.0,0.01,-0.3050241264350712,-9.83410265507102,-0.5208074693407863,0.01,0.0,0.0,0.0,0.01,0.0,0.0,0.0,0.01
1700026482.5093544,51196,1700026482,489769216,gx5_link,0.6770777106285095,0.12802104651927948,0.15140055119991302,0.708699107170105,0.01,0.0,0.0,0.0,0.01,0.0,0.0,0.0,0.01,0.17504049837589264,0.11994242668151855,-0.10986463725566864,0.01,0.0,0.0,0.0,0.01,0.0,0.0,0.0,0.01,-0.296075936554186,-9.876814838594198,-0.37447281611654903,0.01,0.0,0.0,0.0,0.01,0.0,0.0,0.0,0.01
1700026482.5161037,51197,1700026482,499782656,gx5_link,0.6774942874908447,0.1289111077785492,0.1512984186410904,0.7081611752510071,0.01,0.0,0.0,0.0,0.01,0.0,0.0,0.0,0.01,0.1532166600227356,0.11748798191547394,-0.10893958061933517,0.01,0.0,0.0,0.0,0.01,0.0,0.0,0.0,0.01,-0.278144321082253,-9.945035557383298,-0.21347199722342192,0.01,0.0,0.0,0.0,0.01,0.0,0.0,0.0,0.01
1700026482.5257347,51198,1700026482,509797120,gx5_link,0.6778502464294434,0.12976610660552979,0.15127301216125488,0.7076696157455444,0.01,0.0,0.0,0.0,0.01,0.0,0.0,0.0,0.01,0.1336495578289032,0.12384484708309174,-0.09627890586853027,0.01,0.0,0.0,0.0,0.01,0.0,0.0,0.0,0.01,-0.24463064893921835,-9.979129550164938,-0.15615264820959418,0.01,0.0,0.0,0.0,0.01,0.0,0.0,0.0,0.01
1700026482.5375905,51199,1700026482,519813632,gx5_link,0.6781315803527832,0.1305268555879593,0.1513153463602066,0.7072510123252869,0.01,0.0,0.0,0.0,0.01,0.0,0.0,0.0,0.01,0.11330242455005646,0.12195613235235214,-0.07882461696863174,0.01,0.0,0.0,0.0,0.01,0.0,0.0,0.0,0.01,-0.19306599099459126,-9.978840796351433,-0.20192480382528155,0.01,0.0,0.0,0.0,0.01,0.0,0.0,0.0,0.01
1700026482.5456948,51200,1700026482,529827072,gx5_link,0.6783670783042908,0.1312011480331421,0.15138103067874908,0.7068862915039062,0.01,0.0,0.0,0.0,0.01,0.0,0.0,0.0,0.01,0.09755119681358337,0.11387383192777634,-0.06285853683948517,0.01,0.0,0.0,0.0,0.01,0.0,0.0,0.0,0.01,-0.1495512315174099,-10.021247859448193,-0.2707384104736149,0.01,0.0,0.0,0.0,0.01,0.0,0.0,0.0,0.01
1700026482.5561185,51201,1700026482,539842304,gx5_link,0.6785834431648254,0.13169008493423462,0.15152400732040405,0.7065569758415222,0.01,0.0,0.0,0.0,0.01,0.0,0.0,0.0,0.01,0.0867864117026329,0.1011565700173378,-0.029380232095718384,0.01,0.0,0.0,0.0,0.01,0.0,0.0,0.0,0.01,-0.10333645583391189,-10.0637203889966,-0.3490396111091599,0.01,0.0,0.0,0.0,0.01,0.0,0.0,0.0,0.01
1700026482.5813215,51202,1700026482,549861120,gx5_link,0.678866446018219,0.13197186589241028,0.15180213749408722,0.7061727046966553,0.01,0.0,0.0,0.0,0.01,0.0,0.0,0.0,0.01,0.09406117349863052,0.09061127156019211,0.01967555284500122,0.01,0.0,0.0,0.0,0.01,0.0,0.0,0.0,0.01,-0.08689808372757397,-10.093875873285532,-0.41150903636254366,0.01,0.0,0.0,0.0,0.01,0.0,0.0,0.0,0.01
1700026482.5816875,51203,1700026482,559875328,gx5_link,0.6792439222335815,0.13205333054065704,0.15227073431015015,0.7056934833526611,0.01,0.0,0.0,0.0,0.01,0.0,0.0,0.0,0.01,0.10827953368425369,0.08653845638036728,0.07590329647064209,0.01,0.0,0.0,0.0,0.01,0.0,0.0,0.0,0.01,-0.08426113195326179,-10.063083260136843,-0.4768982945853844,0.01,0.0,0.0,0.0,0.01,0.0,0.0,0.0,0.01
1700026482.5867748,51204,1700026482,569889536,gx5_link,0.6796964406967163,0.13200610876083374,0.15287436544895172,0.7051359415054321,0.01,0.0,0.0,0.0,0.01,0.0,0.0,0.0,0.01,0.12088149785995483,0.086786650121212,0.11908125132322311,0.01,0.0,0.0,0.0,0.01,0.0,0.0,0.0,0.01,-0.06531502850942779,-9.961727164465188,-0.45293914418593045,0.01,0.0,0.0,0.0,0.01,0.0,0.0,0.0,0.01
1700026482.5985155,51205,1700026482,579906816,gx5_link,0.6801608800888062,0.13185250759124756,0.15356488525867462,0.704566478729248,0.01,0.0,0.0,0.0,0.01,0.0,0.0,0.0,0.01,0.12628817558288574,0.08528226613998413,0.14860443770885468,0.01,0.0,0.0,0.0,0.01,0.0,0.0,0.0,0.01,-0.05414065047905314,-9.910303266698122,-0.5567038719018921,0.01,0.0,0.0,0.0,0.01,0.0,0.0,0.0,0.01
1700026482.6069043,51206,1700026482,589921280,gx5_link,0.6806215643882751,0.1315794587135315,0.1542539894580841,0.7040219306945801,0.01,0.0,0.0,0.0,0.01,0.0,0.0,0.0,0.01,0.12540847063064575,0.07114192098379135,0.1647959053516388,0.01,0.0,0.0,0.0,0.01,0.0,0.0,0.0,0.01,-0.07735292346738279,-9.915555780398845,-0.7413863759599626,0.01,0.0,0.0,0.0,0.01,0.0,0.0,0.0,0.01
1700026482.6199977,51207,1700026482,599935744,gx5_link,0.6810978651046753,0.13119427859783173,0.15492498874664307,0.7034856081008911,0.01,0.0,0.0,0.0,0.01,0.0,0.0,0.0,0.01,0.12447091192007065,0.0539422333240509,0.17866994440555573,0.01,0.0,0.0,0.0,0.01,0.0,0.0,0.0,0.01,-0.11254868521215393,-9.941572849708795,-0.7583048506002873,0.01,0.0,0.0,0.0,0.01,0.0,0.0,0.0,0.01
1700026482.6276524,51208,1700026482,609952256,gx5_link,0.6816011071205139,0.1307249814271927,0.15559066832065582,0.702938437461853,0.01,0.0,0.0,0.0,0.01,0.0,0.0,0.0,0.01,0.12408742308616638,0.04012792184948921,0.18931812047958374,0.01,0.0,0.0,0.0,0.01,0.0,0.0,0.0,0.01,-0.15879443142265082,-9.95187680158019,-0.7022426985733211,0.01,0.0,0.0,0.0,0.01,0.0,0.0,0.0,0.01
1700026482.6366367,51209,1700026482,619965952,gx5_link,0.6820705533027649,0.13022908568382263,0.15620023012161255,0.7024397850036621,0.01,0.0,0.0,0.0,0.01,0.0,0.0,0.0,0.01,0.11292711645364761,0.028422288596630096,0.1811250001192093,0.01,0.0,0.0,0.0,0.01,0.0,0.0,0.0,0.01,-0.22591045863917097,-9.886989026606082,-0.6883422565799207,0.01,0.0,0.0,0.0,0.01,0.0,0.0,0.0,0.01
1700026482.6466703,51210,1700026482,629980928,gx5_link,0.6824047565460205,0.12976357340812683,0.15667159855365753,0.7020963430404663,0.01,0.0,0.0,0.0,0.01,0.0,0.0,0.0,0.01,0.08104178309440613,0.013277729041874409,0.1497124433517456,0.01,0.0,0.0,0.0,0.01,0.0,0.0,0.0,0.01,-0.33914518988672643,-9.867024096941947,-0.6633822220422327,0.01,0.0,0.0,0.0,0.01,0.0,0.0,0.0,0.01
1700026482.6596386,51211,1700026482,639998464,gx5_link,0.6825889348983765,0.12936942279338837,0.15698635578155518,0.7019196152687073,0.01,0.0,0.0,0.0,0.01,0.0,0.0,0.0,0.01,0.04346643015742302,0.0008119958220049739,0.1079658716917038,0.01,0.0,0.0,0.0,0.01,0.0,0.0,0.0,0.01,-0.457769158158265,-9.897916078811884,-0.5846036131532862,0.01,0.0,0.0,0.0,0.01,0.0,0.0,0.0,0.01
1700026482.66976,51212,1700026482,650011136,gx5_link,0.6826303005218506,0.12907825410366058,0.1571650207042694,0.701893150806427,0.01,0.0,0.0,0.0,0.01,0.0,0.0,0.0,0.01,0.005111084319651127,-0.005034304223954678,0.06467664986848831,0.01,0.0,0.0,0.0,0.01,0.0,0.0,0.0,0.01,-0.5863750432725996,-9.990517205619811,-0.4930496207781136,0.01,0.0,0.0,0.0,0.01,0.0,0.0,0.0,0.01
1700026482.6775832,51213,1700026482,660025344,gx5_link,0.6825683116912842,0.12887820601463318,0.1573009490966797,0.7019597291946411,0.01,0.0,0.0,0.0,0.01,0.0,0.0,0.0,0.01,-0.022910095751285553,0.002173550194129348,0.03531687334179878,0.01,0.0,0.0,0.0,0.01,0.0,0.0,0.0,0.01,-0.6814028857707977,-10.091226820081472,-0.3413903019323945,0.01,0.0,0.0,0.0,0.01,0.0,0.0,0.0,0.01
1700026482.6874824,51214,1700026482,670041344,gx5_link,0.6824163198471069,0.1288149207830429,0.1575314998626709,0.7020673155784607,0.01,0.0,0.0,0.0,0.01,0.0,0.0,0.0,0.01,-0.04432418942451477,0.03163570165634155,0.023764481768012047,0.01,0.0,0.0,0.0,0.01,0.0,0.0,0.0,0.01,-0.7364882286548614,-10.115385109782219,-0.2333916995063424,0.01,0.0,0.0,0.0,0.01,0.0,0.0,0.0,0.01
1700026482.697526,51215,1700026482,680056320,gx5_link,0.6822186708450317,0.1289072483778,0.1579340398311615,0.7021520733833313,0.01,0.0,0.0,0.0,0.01,0.0,0.0,0.0,0.01,-0.051445845514535904,0.07580164819955826,0.02295761927962303,0.01,0.0,0.0,0.0,0.01,0.0,0.0,0.0,0.01,-0.7579187738921492,-10.05271734894514,-0.14643017688742838,0.01,0.0,0.0,0.0,0.01,0.0,0.0,0.0,0.01
1700026482.707232,51216,1700026482,690071040,gx5_link,0.6820070743560791,0.1292121559381485,0.1585351526737213,0.7021661400794983,0.01,0.0,0.0,0.0,0.01,0.0,0.0,0.0,0.01,-0.046465832740068436,0.13268665969371796,0.023056339472532272,0.01,0.0,0.0,0.0,0.01,0.0,0.0,0.0,0.01,-0.7478411781225353,-9.902322204816342,-0.08609745313548482,0.01,0.0,0.0,0.0,0.01,0.0,0.0,0.0,0.01
1700026482.7216716,51217,1700026482,700088832,gx5_link,0.6817682385444641,0.12973175942897797,0.15928877890110016,0.7021316289901733,0.01,0.0,0.0,0.0,0.01,0.0,0.0,0.0,0.01,-0.040308352559804916,0.1851632446050644,0.017274020239710808,0.01,0.0,0.0,0.0,0.01,0.0,0.0,0.0,0.01,-0.7260339815925806,-9.76054642047286,-0.12091959579489193,0.01,0.0,0.0,0.0,0.01,0.0,0.0,0.0,0.01
1700026482.7271829,51218,1700026482,710102784,gx5_link,0.6815297603607178,0.1304381787776947,0.16012300550937653,0.7020426392555237,0.01,0.0,0.0,0.0,0.01,0.0,0.0,0.0,0.01,-0.028110845014452934,0.22568167746067047,0.00681001553311944,0.01,0.0,0.0,0.0,0.01,0.0,0.0,0.0,0.01,-0.6928468014575541,-9.675897713974118,-0.1673561610029079,0.01,0.0,0.0,0.0,0.01,0.0,0.0,0.0,0.01
1700026482.73712,51219,1700026482,720116992,gx5_link,0.6812798380851746,0.1313294917345047,0.16095761954784393,0.7019280791282654,0.01,0.0,0.0,0.0,0.01,0.0,0.0,0.0,0.01,-0.018840618431568146,0.25521573424339294,-0.014321886003017426,0.01,0.0,0.0,0.0,0.01,0.0,0.0,0.0,0.01,-0.6391472138434648,-9.592018822804093,-0.21085330262500793,0.01,0.0,0.0,0.0,0.01,0.0,0.0,0.0,0.01
1700026482.7535925,51220,1700026482,730139136,gx5_link,0.6809812784194946,0.13236406445503235,0.16171349585056305,0.7018496990203857,0.01,0.0,0.0,0.0,0.01,0.0,0.0,0.0,0.01,-0.018827160820364952,0.26942989230155945,-0.04327334463596344,0.01,0.0,0.0,0.0,0.01,0.0,0.0,0.0,0.01,-0.5596305730035528,-9.482592233401537,-0.3180451917780563,0.01,0.0,0.0,0.0,0.01,0.0,0.0,0.0,0.01
1700026482.7571087,51221,1700026482,740153088,gx5_link,0.6806503534317017,0.13354440033435822,0.16232700645923615,0.7018054723739624,0.01,0.0,0.0,0.0,0.01,0.0,0.0,0.0,0.01,-0.016851697117090225,0.2742901146411896,-0.08073709905147552,0.01,0.0,0.0,0.0,0.01,0.0,0.0,0.0,0.01,-0.4904056090753525,-9.44150034455657,-0.3581699160913005,0.01,0.0,0.0,0.0,0.01,0.0,0.0,0.0,0.01
1700026482.7769094,51222,1700026482,750167552,gx5_link,0.6803308129310608,0.1348104476928711,0.16279982030391693,0.7017637491226196,0.01,0.0,0.0,0.0,0.01,0.0,0.0,0.0,0.01,-0.010215322487056255,0.26990365982055664,-0.1105576679110527,0.01,0.0,0.0,0.0,0.01,0.0,0.0,0.0,0.01,-0.4178043736470863,-9.458212994426487,-0.36214904885534194,0.01,0.0,0.0,0.0,0.01,0.0,0.0,0.0,0.01
1700026482.7781613,51223,1700026482,760183808,gx5_link,0.6800713539123535,0.13613416254520416,0.16319623589515686,0.7016676068305969,0.01,0.0,0.0,0.0,0.01,0.0,0.0,0.0,0.01,0.00768422894179821,0.2678583562374115,-0.12416394799947739,0.01,0.0,0.0,0.0,0.01,0.0,0.0,0.0,0.01,-0.3384269220821559,-9.501427282252907,-0.31716650924738493,0.01,0.0,0.0,0.0,0.01,0.0,0.0,0.0,0.01
1700026482.787304,51224,1700026482,770196992,gx5_link,0.6799434423446655,0.13747243583202362,0.16357922554016113,0.7014414668083191,0.01,0.0,0.0,0.0,0.01,0.0,0.0,0.0,0.01,0.04076463356614113,0.2668260633945465,-0.12165817618370056,0.01,0.0,0.0,0.0,0.01,0.0,0.0,0.0,0.01,-0.27341510060327123,-9.550696632334589,-0.3111785939441994,0.01,0.0,0.0,0.0,0.01,0.0,0.0,0.0,0.01
1700026482.8017185,51225,1700026482,780211712,gx5_link,0.6799411773681641,0.13881082832813263,0.16395685076713562,0.7010917663574219,0.01,0.0,0.0,0.0,0.01,0.0,0.0,0.0,0.01,0.07302585989236832,0.2663217782974243,-0.11523276567459106,0.01,0.0,0.0,0.0,0.01,0.0,0.0,0.0,0.01,-0.20189031703379004,-9.565347088977694,-0.28096469399891794,0.01,0.0,0.0,0.0,0.01,0.0,0.0,0.0,0.01
1700026482.8082888,51226,1700026482,791227648,gx5_link,0.6800562739372253,0.14015769958496094,0.16433630883693695,0.7006232142448425,0.01,0.0,0.0,0.0,0.01,0.0,0.0,0.0,0.01,0.10301467031240463,0.2678700089454651,-0.1077132523059845,0.01,0.0,0.0,0.0,0.01,0.0,0.0,0.0,0.01,-0.16524053882211445,-9.644145900404453,-0.1905520902112126,0.01,0.0,0.0,0.0,0.01,0.0,0.0,0.0,0.01
1700026482.8239489,51227,1700026482,801245440,gx5_link,0.6802322864532471,0.14153097569942474,0.16473063826560974,0.7000834941864014,0.01,0.0,0.0,0.0,0.01,0.0,0.0,0.0,0.01,0.11948853731155396,0.2717640995979309,-0.10465104877948761,0.01,0.0,0.0,0.0,0.01,0.0,0.0,0.0,0.01,-0.07800794417685829,-9.632153264793754,-0.11132135364059358,0.01,0.0,0.0,0.0,0.01,0.0,0.0,0.0,0.01
1700026482.832251,51228,1700026482,811265280,gx5_link,0.6803746223449707,0.1429482400417328,0.16502365469932556,0.6995880603790283,0.01,0.0,0.0,0.0,0.01,0.0,0.0,0.0,0.01,0.11772673577070236,0.2663102149963379,-0.11887378990650177,0.01,0.0,0.0,0.0,0.01,0.0,0.0,0.0,0.01,0.05499950493124779,-9.60440893329978,-0.15306472866423426,0.01,0.0,0.0,0.0,0.01,0.0,0.0,0.0,0.01
1700026482.8391373,51229,1700026482,821280768,gx5_link,0.6804448366165161,0.1442968249320984,0.16517695784568787,0.699206531047821,0.01,0.0,0.0,0.0,0.01,0.0,0.0,0.0,0.01,0.10221274942159653,0.24151891469955444,-0.12988078594207764,0.01,0.0,0.0,0.0,0.01,0.0,0.0,0.0,0.01,0.14515150785427539,-9.69113035441935,-0.276456514125783,0.01,0.0,0.0,0.0,0.01,0.0,0.0,0.0,0.01
1700026482.8493197,51230,1700026482,831297280,gx5_link,0.6804741024971008,0.14538738131523132,0.16517001390457153,0.6989538669586182,0.01,0.0,0.0,0.0,0.01,0.0,0.0,0.0,0.01,0.08934887498617172,0.18832747638225555,-0.1258530467748642,0.01,0.0,0.0,0.0,0.01,0.0,0.0,0.0,0.01,0.15341991704376415,-9.868022460329533,-0.644064065849036,0.01,0.0,0.0,0.0,0.01,0.0,0.0,0.0,0.01
1700026482.8613603,51231,1700026482,841316096,gx5_link,0.6804721355438232,0.14613889157772064,0.1649489849805832,0.6988511681556702,0.01,0.0,0.0,0.0,0.01,0.0,0.0,0.0,0.01,0.07047933340072632,0.11532081663608551,-0.11945522576570511,0.01,0.0,0.0,0.0,0.01,0.0,0.0,0.0,0.01,0.16030805085599423,-9.901402167361974,-0.9085708884567022,0.01,0.0,0.0,0.0,0.01,0.0,0.0,0.0,0.01
1700026482.869121,51232,1700026482,851332864,gx5_link,0.6804506182670593,0.1466267853975296,0.1644725799560547,0.6988822221755981,0.01,0.0,0.0,0.0,0.01,0.0,0.0,0.0,0.01,0.04670671373605728,0.04218233749270439,-0.12213084846735,0.01,0.0,0.0,0.0,0.01,0.0,0.0,0.0,0.01,0.15515019316878167,-9.875866744089127,-0.8997660160366445,0.01,0.0,0.0,0.0,0.01,0.0,0.0,0.0,0.01
1700026482.8884535,51233,1700026482,861350144,gx5_link,0.6803804039955139,0.1469058394432068,0.16380572319030762,0.699048638343811,0.01,0.0,0.0,0.0,0.01,0.0,0.0,0.0,0.01,0.0200631245970726,-0.015987170860171318,-0.12521959841251373,0.01,0.0,0.0,0.0,0.01,0.0,0.0,0.0,0.01,0.1318144079652149,-9.909769013690948,-0.9078202162198722,0.01,0.0,0.0,0.0,0.01,0.0,0.0,0.0,0.01
1700026482.891896,51234,1700026482,871369472,gx5_link,0.6802772283554077,0.14697550237178802,0.16307677328586578,0.6993046998977661,0.01,0.0,0.0,0.0,0.01,0.0,0.0,0.0,0.01,-0.000533142825588584,-0.058928050100803375,-0.11411561071872711,0.01,0.0,0.0,0.0,0.01,0.0,0.0,0.0,0.01,0.05406367168612778,-10.023442154622078,-0.9084441202718764,0.01,0.0,0.0,0.0,0.01,0.0,0.0,0.0,0.01
1700026482.8984573,51235,1700026482,881385472,gx5_link,0.6801885962486267,0.14683236181735992,0.16240054368972778,0.6995784044265747,0.01,0.0,0.0,0.0,0.01,0.0,0.0,0.0,0.01,-0.013656172901391983,-0.08580330014228821,-0.08478161692619324,0.01,0.0,0.0,0.0,0.01,0.0,0.0,0.0,0.01,-0.04670161391894798,-10.140537086695431,-0.8668944777220488,0.01,0.0,0.0,0.0,0.01,0.0,0.0,0.0,0.01
1700026482.9103189,51236,1700026482,891403008,gx5_link,0.6801482439041138,0.14652390778064728,0.16188806295394897,0.6998010277748108,0.01,0.0,0.0,0.0,0.01,0.0,0.0,0.0,0.01,-0.01781250163912773,-0.090702123939991,-0.04264667257666588,0.01,0.0,0.0,0.0,0.01,0.0,0.0,0.0,0.01,-0.15454749630158765,-10.191092384934425,-0.6502684003818779,0.01,0.0,0.0,0.0,0.01,0.0,0.0,0.0,0.01
1700026482.9223635,51237,1700026482,901422592,gx5_link,0.6801661252975464,0.14616216719150543,0.1616639941930771,0.6999109983444214,0.01,0.0,0.0,0.0,0.01,0.0,0.0,0.0,0.01,-0.016786936670541763,-0.06642547994852066,0.003016888862475753,0.01,0.0,0.0,0.0,0.01,0.0,0.0,0.0,0.01,-0.27637400520779193,-10.169348170638084,-0.37677608809024093,0.01,0.0,0.0,0.0,0.01,0.0,0.0,0.0,0.01
1700026482.9290113,51238,1700026482,911437824,gx5_link,0.6802175045013428,0.1458694040775299,0.1617521047592163,0.699901819229126,0.01,0.0,0.0,0.0,0.01,0.0,0.0,0.0,0.01,-0.013075162656605244,-0.01878119446337223,0.04062744602560997,0.01,0.0,0.0,0.0,0.01,0.0,0.0,0.0,0.01,-0.36431375260856,-10.09891211388707,-0.10727120146695523,0.01,0.0,0.0,0.0,0.01,0.0,0.0,0.0,0.01
1700026482.9403172,51239,1700026482,921454592,gx5_link,0.6802679896354675,0.14576175808906555,0.16216009855270386,0.6997807621955872,0.01,0.0,0.0,0.0,0.01,0.0,0.0,0.0,0.01,-0.009127147495746613,0.04681265726685524,0.06338250637054443,0.01,0.0,0.0,0.0,0.01,0.0,0.0,0.0,0.01,-0.4345305405857041,-10.092973371487854,0.1119110540288966,0.01,0.0,0.0,0.0,0.01,0.0,0.0,0.0,0.01
1700026482.9516056,51240,1700026482,931473408,gx5_link,0.6802457571029663,0.14587506651878357,0.16284427046775818,0.6996198296546936,0.01,0.0,0.0,0.0,0.01,0.0,0.0,0.0,0.01,-0.01837364211678505,0.11716064810752869,0.07309336215257645,0.01,0.0,0.0,0.0,0.01,0.0,0.0,0.0,0.01,-0.42544560911525037,-10.041369440978764,0.26110041169766335,0.01,0.0,0.0,0.0,0.01,0.0,0.0,0.0,0.01
1700026482.9583247,51241,1700026482,941488640,gx5_link,0.6801148056983948,0.14621806144714355,0.16373607516288757,0.6994674205780029,0.01,0.0,0.0,0.0,0.01,0.0,0.0,0.0,0.01,-0.032505281269550323,0.18037231266498566,0.07275045663118362,0.01,0.0,0.0,0.0,0.01,0.0,0.0,0.0,0.01,-0.3631504079176113,-10.013390716207027,0.33855489584337917,0.01,0.0,0.0,0.0,0.01,0.0,0.0,0.0,0.01
1700026482.9700022,51242,1700026482,951505920,gx5_link,0.6798901557922363,0.14674732089042664,0.16476787626743317,0.6993326544761658,0.01,0.0,0.0,0.0,0.01,0.0,0.0,0.0,0.01,-0.0450202114880085,0.22978585958480835,0.07083284854888916,0.01,0.0,0.0,0.0,0.01,0.0,0.0,0.0,0.01,-0.23458624305315315,-9.983736751699446,0.33498131167292594,0.01,0.0,0.0,0.0,0.01,0.0,0.0,0.0,0.01
1700026482.9820323,51243,1700026482,961525248,gx5_link,0.6795935034751892,0.14740584790706635,0.1658829152584076,0.6992188692092896,0.01,0.0,0.0,0.0,0.01,0.0,0.0,0.0,0.01,-0.05488976463675499,0.2649446427822113,0.06721111387014389,0.01,0.0,0.0,0.0,0.01,0.0,0.0,0.0,0.01,-0.07270151746496557,-9.912509252309798,0.2564395802797749,0.01,0.0,0.0,0.0,0.01,0.0,0.0,0.0,0.01
1700026482.990873,51244,1700026482,971539712,gx5_link,0.6792634129524231,0.14808139204978943,0.16700349748134613,0.6991302371025085,0.01,0.0,0.0,0.0,0.01,0.0,0.0,0.0,0.01,-0.05897975713014603,0.2754691243171692,0.06869691610336304,0.01,0.0,0.0,0.0,0.01,0.0,0.0,0.0,0.01,0.10039071210506371,-9.842118788266182,0.1649737959110178,0.01,0.0,0.0,0.0,0.01,0.0,0.0,0.0,0.01
1700026482.9994478,51245,1700026482,981556224,gx5_link,0.6789073944091797,0.14874500036239624,0.16805575788021088,0.6990830302238464,0.01,0.0,0.0,0.0,0.01,0.0,0.0,0.0,0.01,-0.05983487516641617,0.268581360578537,0.06521125137805939,0.01,0.0,0.0,0.0,0.01,0.0,0.0,0.0,0.01,0.2536705904904753,-9.777396432986855,-0.009852921309910015,0.01,0.0,0.0,0.0,0.01,0.0,0.0,0.0,0.01
1700026483.0114393,51246,1700026482,991574528,gx5_link,0.6785428524017334,0.14933927357196808,0.1689530611038208,0.6990938782691956,0.01,0.0,0.0,0.0,0.01,0.0,0.0,0.0,0.01,-0.059834375977516174,0.24199020862579346,0.05566459894180298,0.01,0.0,0.0,0.0,0.01,0.0,0.0,0.0,0.01,0.3703337800830602,-9.747021752989292,-0.2762160564334132,0.01,0.0,0.0,0.0,0.01,0.0,0.0,0.0,0.01
1700026483.020502,51247,1700026483,1591296,gx5_link,0.6781853437423706,0.14981162548065186,0.16962112486362457,0.6991779208183289,0.01,0.0,0.0,0.0,0.01,0.0,0.0,0.0,0.01,-0.05913892760872841,0.19705595076084137,0.0418611578643322,0.01,0.0,0.0,0.0,0.01,0.0,0.0,0.0,0.01,0.4478119373653084,-9.749630474182963,-0.463424151712656,0.01,0.0,0.0,0.0,0.01,0.0,0.0,0.0,0.01
1700026483.0443366,51248,1700026483,11608064,gx5_link,0.6778692603111267,0.15012302994728088,0.17001526057720184,0.6993219256401062,0.01,0.0,0.0,0.0,0.01,0.0,0.0,0.0,0.01,-0.055991873145103455,0.13892042636871338,0.02707868069410324,0.01,0.0,0.0,0.0,0.01,0.0,0.0,0.0,0.01,0.5334201000133529,-9.751508543014525,-0.5835071596860886,0.01,0.0,0.0,0.0,0.01,0.0,0.0,0.0,0.01
1700026483.0444157,51249,1700026483,21626880,gx5_link,0.6775993704795837,0.1502355933189392,0.17014923691749573,0.6995267868041992,0.01,0.0,0.0,0.0,0.01,0.0,0.0,0.0,0.01,-0.05133204907178879,0.07470578700304031,0.018831903114914894,0.01,0.0,0.0,0.0,0.01,0.0,0.0,0.0,0.01,0.5752620765732601,-9.80914707751274,-0.7530662923596799,0.01,0.0,0.0,0.0,0.01,0.0,0.0,0.0,0.01
1700026483.0485616,51250,1700026483,31642368,gx5_link,0.6774154901504517,0.1500631868839264,0.17003114521503448,0.6997705101966858,0.01,0.0,0.0,0.0,0.01,0.0,0.0,0.0,0.01,-0.04075213894248009,-0.00023952219635248184,0.02071934938430786,0.01,0.0,0.0,0.0,0.01,0.0,0.0,0.0,0.01,0.5480133100438863,-9.878457345104216,-0.9493665708340704,0.01,0.0,0.0,0.0,0.01,0.0,0.0,0.0,0.01
1700026483.0602522,51251,1700026483,41659904,gx5_link,0.6773451566696167,0.1495397835969925,0.16965000331401825,0.7000430822372437,0.01,0.0,0.0,0.0,0.01,0.0,0.0,0.0,0.01,-0.028731567785143852,-0.08692166954278946,0.026526065543293953,0.01,0.0,0.0,0.0,0.01,0.0,0.0,0.0,0.01,0.4317401061495766,-9.907717341858149,-1.0767586597118526,0.01,0.0,0.0,0.0,0.01,0.0,0.0,0.0,0.01
1700026483.0723643,51252,1700026483,51678976,gx5_link,0.6773589253425598,0.1487421989440918,0.16896648705005646,0.700364887714386,0.01,0.0,0.0,0.0,0.01,0.0,0.0,0.0,0.01,-0.025512874126434326,-0.1721748560667038,0.016459355130791664,0.01,0.0,0.0,0.0,0.01,0.0,0.0,0.0,0.01,0.24541062033576888,-9.905333661592007,-1.060928857091069,0.01,0.0,0.0,0.0,0.01,0.0,0.0,0.0,0.01
1700026483.0775871,51253,1700026483,61693696,gx5_link,0.6774200201034546,0.14780938625335693,0.1680152267217636,0.7007320523262024,0.01,0.0,0.0,0.0,0.01,0.0,0.0,0.0,0.01,-0.032385025173425674,-0.2352112978696823,-0.006601202767342329,0.01,0.0,0.0,0.0,0.01,0.0,0.0,0.0,0.01,0.02582854730079416,-9.960665672713517,-0.7661091676756739,0.01,0.0,0.0,0.0,0.01,0.0,0.0,0.0,0.01
1700026483.0896704,51254,1700026483,71710208,gx5_link,0.6774628758430481,0.14683599770069122,0.16695347428321838,0.7011489272117615,0.01,0.0,0.0,0.0,0.01,0.0,0.0,0.0,0.01,-0.05124910920858383,-0.2658690810203552,-0.02652924694120884,0.01,0.0,0.0,0.0,0.01,0.0,0.0,0.0,0.01,-0.20951421777466311,-10.118949524265528,-0.431744051672332,0.01,0.0,0.0,0.0,0.01,0.0,0.0,0.0,0.01
1700026483.100981,51255,1700026483,81728512,gx5_link,0.6774051189422607,0.14586946368217468,0.16593676805496216,0.7016476392745972,0.01,0.0,0.0,0.0,0.01,0.0,0.0,0.0,0.01,-0.07960629463195801,-0.2665209174156189,-0.03535515442490578,0.01,0.0,0.0,0.0,0.01,0.0,0.0,0.0,0.01,-0.41883755261972544,-10.233933163273333,-0.27483267578361553,0.01,0.0,0.0,0.0,0.01,0.0,0.0,0.0,0.01
1700026483.113315,51256,1700026483,91748608,gx5_link,0.6772401928901672,0.1449708789587021,0.16505217552185059,0.7022014856338501,0.01,0.0,0.0,0.0,0.01,0.0,0.0,0.0,0.01,-0.10809775441884995,-0.24286705255508423,-0.038300398737192154,0.01,0.0,0.0,0.0,0.01,0.0,0.0,0.0,0.01,-0.5892876793162897,-10.274339992463588,-0.13284955969923176,0.01,0.0,0.0,0.0,0.01,0.0,0.0,0.0,0.01
1700026483.1199918,51257,1700026483,101765888,gx5_link,0.676999568939209,0.14423103630542755,0.16436819732189178,0.7027460932731628,0.01,0.0,0.0,0.0,0.01,0.0,0.0,0.0,0.01,-0.12623415887355804,-0.19705888628959656,-0.036577023565769196,0.01,0.0,0.0,0.0,0.01,0.0,0.0,0.0,0.01,-0.6692796825829893,-10.256680417132378,0.05851533559905365,0.01,0.0,0.0,0.0,0.01,0.0,0.0,0.0,0.01
1700026483.137765,51258,1700026483,111785216,gx5_link,0.6766571998596191,0.14367470145225525,0.16391704976558685,0.7032949924468994,0.01,0.0,0.0,0.0,0.01,0.0,0.0,0.0,0.01,-0.14386847615242004,-0.14070993661880493,-0.033065881580114365,0.01,0.0,0.0,0.0,0.01,0.0,0.0,0.0,0.01,-0.6783717013813555,-10.271023415261507,0.10160216112090274,0.01,0.0,0.0,0.0,0.01,0.0,0.0,0.0,0.01
1700026483.1387105,51259,1700026483,121799936,gx5_link,0.6761747002601624,0.14328068494796753,0.1636953502893448,0.7038908004760742,0.01,0.0,0.0,0.0,0.01,0.0,0.0,0.0,0.01,-0.1640324592590332,-0.08234070241451263,-0.026368865743279457,0.01,0.0,0.0,0.0,0.01,0.0,0.0,0.0,0.01,-0.6383661464683711,-10.297568892359733,-0.08577813978693448,0.01,0.0,0.0,0.0,0.01,0.0,0.0,0.0,0.01
1700026483.1486516,51260,1700026483,131816192,gx5_link,0.6755717396736145,0.1429654061794281,0.16366760432720184,0.7045400738716125,0.01,0.0,0.0,0.0,0.01,0.0,0.0,0.0,0.01,-0.18148764967918396,-0.04037297144532204,-0.013236151076853275,0.01,0.0,0.0,0.0,0.01,0.0,0.0,0.0,0.01,-0.5918395557561889,-10.29028107343912,-0.32956231883149595,0.01,0.0,0.0,0.0,0.01,0.0,0.0,0.0,0.01
1700026483.1619823,51261,1700026483,141835520,gx5_link,0.6749025583267212,0.14269836246967316,0.1637454777956009,0.705217182636261,0.01,0.0,0.0,0.0,0.01,0.0,0.0,0.0,0.01,-0.19112426042556763,-0.012374361976981163,-0.006426235195249319,0.01,0.0,0.0,0.0,0.01,0.0,0.0,0.0,0.01,-0.5227101976895705,-10.159113192349672,-0.5193422190938145,0.01,0.0,0.0,0.0,0.01,0.0,0.0,0.0,0.01
1700026483.1691384,51262,1700026483,151851776,gx5_link,0.6742119789123535,0.14249883592128754,0.16385523974895477,0.7058922052383423,0.01,0.0,0.0,0.0,0.01,0.0,0.0,0.0,0.01,-0.19318491220474243,0.004171009175479412,-0.007744884584099054,0.01,0.0,0.0,0.0,0.01,0.0,0.0,0.0,0.01,-0.47983807436432685,-10.043425788986683,-0.5651519302409141,0.01,0.0,0.0,0.0,0.01,0.0,0.0,0.0,0.01
1700026483.1799102,51263,1700026483,161868544,gx5_link,0.673554539680481,0.14233845472335815,0.16396765410900116,0.7065258622169495,0.01,0.0,0.0,0.0,0.01,0.0,0.0,0.0,0.01,-0.18536949157714844,0.010715534910559654,-0.010321522131562233,0.01,0.0,0.0,0.0,0.01,0.0,0.0,0.0,0.01,-0.4843682651398703,-9.9822205019176,-0.542310751020722,0.01,0.0,0.0,0.0,0.01,0.0,0.0,0.0,0.01
1700026483.1934602,51264,1700026483,171887360,gx5_link,0.6729249358177185,0.14219655096530914,0.1640838384628296,0.707127034664154,0.01,0.0,0.0,0.0,0.01,0.0,0.0,0.0,0.01,-0.1770266592502594,0.015082992613315582,-0.011640422977507114,0.01,0.0,0.0,0.0,0.01,0.0,0.0,0.0,0.01,-0.5296961110541597,-9.979166959565877,-0.5656314573861658,0.01,0.0,0.0,0.0,0.01,0.0,0.0,0.0,0.01
1700026483.2031176,51265,1700026483,181907712,gx5_link,0.6723132729530334,0.14211153984069824,0.16419003903865814,0.7077010869979858,0.01,0.0,0.0,0.0,0.01,0.0,0.0,0.0,0.01,-0.17239291965961456,0.02140318974852562,-0.022715052589774132,0.01,0.0,0.0,0.0,0.01,0.0,0.0,0.0,0.01,-0.5613075663050636,-9.85916695370078,-0.49029294248111543,0.01,0.0,0.0,0.0,0.01,0.0,0.0,0.0,0.01
1700026483.2104053,51266,1700026483,191924992,gx5_link,0.6716793179512024,0.14223678410053253,0.16421814262866974,0.7082711458206177,0.01,0.0,0.0,0.0,0.01,0.0,0.0,0.0,0.01,-0.1722973883152008,0.03842185437679291,-0.05793899670243263,0.01,0.0,0.0,0.0,0.01,0.0,0.0,0.0,0.01,-0.5421769685732201,-9.668710432818532,-0.327596242922917,0.01,0.0,0.0,0.0,0.01,0.0,0.0,0.0,0.01
1700026483.2223763,51267,1700026483,201944064,gx5_link,0.670993447303772,0.14263412356376648,0.16419239342212677,0.708847165107727,0.01,0.0,0.0,0.0,0.01,0.0,0.0,0.0,0.01,-0.1723719835281372,0.06837520003318787,-0.09895827621221542,0.01,0.0,0.0,0.0,0.01,0.0,0.0,0.0,0.01,-0.4948011406205594,-9.636198156270384,-0.20353216595668344,0.01,0.0,0.0,0.0,0.01,0.0,0.0,0.0,0.01
1700026483.2276423,51268,1700026483,211958272,gx5_link,0.6702733635902405,0.1432332694530487,0.1641833782196045,0.7094094157218933,0.01,0.0,0.0,0.0,0.01,0.0,0.0,0.0,0.01,-0.16909398138523102,0.0995204746723175,-0.12244554609060287,0.01,0.0,0.0,0.0,0.01,0.0,0.0,0.0,0.01,-0.4045289316842332,-9.656070731475948,-0.23928298603463916,0.01,0.0,0.0,0.0,0.01,0.0,0.0,0.0,0.01
1700026483.240481,51269,1700026483,221974528,gx5_link,0.6695404648780823,0.14393913745880127,0.16418127715587616,0.7099589109420776,0.01,0.0,0.0,0.0,0.01,0.0,0.0,0.0,0.01,-0.16139373183250427,0.11952632665634155,-0.13517600297927856,0.01,0.0,0.0,0.0,0.01,0.0,0.0,0.0,0.01,-0.2783317699457519,-9.600175825774668,-0.3688078126247972,0.01,0.0,0.0,0.0,0.01,0.0,0.0,0.0,0.01
1700026483.2509296,51270,1700026483,231992576,gx5_link,0.6688050627708435,0.14471489191055298,0.16410008072853088,0.7105128765106201,0.01,0.0,0.0,0.0,0.01,0.0,0.0,0.0,0.01,-0.15350846946239471,0.12267225235700607,-0.15112580358982086,0.01,0.0,0.0,0.0,0.01,0.0,0.0,0.0,0.01,-0.12563019377179444,-9.459016712024807,-0.5331920268785209,0.01,0.0,0.0,0.0,0.01,0.0,0.0,0.0,0.01
1700026483.2581544,51271,1700026483,242007552,gx5_link,0.6680678129196167,0.14554762840270996,0.16389711201190948,0.7110829949378967,0.01,0.0,0.0,0.0,0.01,0.0,0.0,0.0,0.01,-0.1468457281589508,0.11715487390756607,-0.16971847414970398,0.01,0.0,0.0,0.0,0.01,0.0,0.0,0.0,0.01,0.025474176338594404,-9.386468777686357,-0.6177437758088111,0.01,0.0,0.0,0.0,0.01,0.0,0.0,0.0,0.01
1700026483.2701256,51272,1700026483,252024320,gx5_link,0.6673657894134521,0.14640562236309052,0.16363799571990967,0.7116255164146423,0.01,0.0,0.0,0.0,0.01,0.0,0.0,0.0,0.01,-0.13660459220409393,0.11447078734636307,-0.1741664558649063,0.01,0.0,0.0,0.0,0.01,0.0,0.0,0.0,0.01,0.1830484365828335,-9.42417570026815,-0.6354143109254539,0.01,0.0,0.0,0.0,0.01,0.0,0.0,0.0,0.01
1700026483.2828045,51273,1700026483,262043136,gx5_link,0.6667287349700928,0.1472366750240326,0.16344775259494781,0.7120949029922485,0.01,0.0,0.0,0.0,0.01,0.0,0.0,0.0,0.01,-0.11967133730649948,0.11827166378498077,-0.15454703569412231,0.01,0.0,0.0,0.0,0.01,0.0,0.0,0.0,0.01,0.33427721852418035,-9.504341123872996,-0.6831961989283561,0.01,0.0,0.0,0.0,0.01,0.0,0.0,0.0,0.01
1700026483.2939625,51274,1700026483,272063488,gx5_link,0.6661795973777771,0.14794327318668365,0.16336293518543243,0.7124817371368408,0.01,0.0,0.0,0.0,0.01,0.0,0.0,0.0,0.01,-0.09762965887784958,0.11664927005767822,-0.11983171850442886,0.01,0.0,0.0,0.0,0.01,0.0,0.0,0.0,0.01,0.4444628461331129,-9.549120761319994,-0.8900069116316736,0.01,0.0,0.0,0.0,0.01,0.0,0.0,0.0,0.01
1700026483.2998927,51275,1700026483,282080256,gx5_link,0.6656962633132935,0.14848439395427704,0.1632840484380722,0.7128388285636902,0.01,0.0,0.0,0.0,0.01,0.0,0.0,0.0,0.01,-0.08226902037858963,0.09714094549417496,-0.09170572459697723,0.01,0.0,0.0,0.0,0.01,0.0,0.0,0.0,0.01,0.5240120010031387,-9.55358592403531,-1.1192216177143155,0.01,0.0,0.0,0.0,0.01,0.0,0.0,0.0,0.01
1700026483.3186724,51276,1700026483,292098048,gx5_link,0.6652569770812988,0.1488366723060608,0.1631420999765396,0.7132078409194946,0.01,0.0,0.0,0.0,0.01,0.0,0.0,0.0,0.01,-0.07515860348939896,0.06354248523712158,-0.07490092515945435,0.01,0.0,0.0,0.0,0.01,0.0,0.0,0.0,0.01,0.5389699161602184,-9.57775765773952,-1.3007812770441174,0.01,0.0,0.0,0.0,0.01,0.0,0.0,0.0,0.01
1700026483.3236725,51277,1700026483,305110784,gx5_link,0.6648300886154175,0.14897218346595764,0.1628047078847885,0.7136546969413757,0.01,0.0,0.0,0.0,0.01,0.0,0.0,0.0,0.01,-0.08176290988922119,0.005819878540933132,-0.07519282400608063,0.01,0.0,0.0,0.0,0.01,0.0,0.0,0.0,0.01,0.4863871672142297,-9.652825465944408,-1.3975430306628345,0.01,0.0,0.0,0.0,0.01,0.0,0.0,0.0,0.01
1700026483.340945,51278,1700026483,315124224,gx5_link,0.6643925905227661,0.14889559149742126,0.16223958134651184,0.7142064571380615,0.01,0.0,0.0,0.0,0.01,0.0,0.0,0.0,0.01,-0.09990117698907852,-0.05432262644171715,-0.0858004242181778,0.01,0.0,0.0,0.0,0.01,0.0,0.0,0.0,0.01,0.38001934432778506,-9.762610951787233,-1.3285437287166715,0.01,0.0,0.0,0.0,0.01,0.0,0.0,0.0,0.01
1700026483.3430364,51279,1700026483,325139200,gx5_link,0.6638940572738647,0.14873991906642914,0.16157546639442444,0.7148527503013611,0.01,0.0,0.0,0.0,0.01,0.0,0.0,0.0,0.01,-0.1300242692232132,-0.08654085546731949,-0.09714920073747635,0.01,0.0,0.0,0.0,0.01,0.0,0.0,0.0,0.01,0.2835358413948677,-9.837426246535777,-1.0394281692270189,0.01,0.0,0.0,0.0,0.01,0.0,0.0,0.0,0.01
1700026483.3536694,51280,1700026483,335156480,gx5_link,0.6632962822914124,0.1485859602689743,0.16095557808876038,0.7155792117118835,0.01,0.0,0.0,0.0,0.01,0.0,0.0,0.0,0.01,-0.16240194439888,-0.0872901976108551,-0.09971962869167328,0.01,0.0,0.0,0.0,0.01,0.0,0.0,0.0,0.01,0.20435161084709688,-9.89391093482375,-0.8313239826470613,0.01,0.0,0.0,0.0,0.01,0.0,0.0,0.0,0.01
1700026483.3635142,51281,1700026483,345170432,gx5_link,0.6625995635986328,0.14842535555362701,0.1604989618062973,0.7163600921630859,0.01,0.0,0.0,0.0,0.01,0.0,0.0,0.0,0.01,-0.18807215988636017,-0.06837264448404312,-0.08389492332935333,0.01,0.0,0.0,0.0,0.01,0.0,0.0,0.0,0.01,0.13583867677892558,-9.93229531827569,-0.8277658517740666,0.01,0.0,0.0,0.0,0.01,0.0,0.0,0.0,0.01
1700026483.37343,51282,1700026483,355186176,gx5_link,0.6618658304214478,0.1482304483652115,0.1602693647146225,0.7171298265457153,0.01,0.0,0.0,0.0,0.01,0.0,0.0,0.0,0.01,-0.19784630835056305,-0.04393979534506798,-0.05287651717662811,0.01,0.0,0.0,0.0,0.01,0.0,0.0,0.0,0.01,0.06948909475710242,-9.950911171418428,-0.9333479676429182,0.01,0.0,0.0,0.0,0.01,0.0,0.0,0.0,0.01
1700026483.3842854,51283,1700026483,365203712,gx5_link,0.6611523628234863,0.14796724915504456,0.16024142503738403,0.7178482413291931,0.01,0.0,0.0,0.0,0.01,0.0,0.0,0.0,0.01,-0.19466498494148254,-0.024784041568636894,-0.01651388220489025,0.01,0.0,0.0,0.0,0.01,0.0,0.0,0.0,0.01,0.031653782855556346,-9.846085353809595,-1.0390471340201795,0.01,0.0,0.0,0.0,0.01,0.0,0.0,0.0,0.01
1700026483.3930595,51284,1700026483,375217920,gx5_link,0.6605274081230164,0.1476961225271225,0.16036196053028107,0.7184521555900574,0.01,0.0,0.0,0.0,0.01,0.0,0.0,0.0,0.01,-0.17696070671081543,-0.00785877462476492,0.012015806511044502,0.01,0.0,0.0,0.0,0.01,0.0,0.0,0.0,0.01,0.005228792615130077,-9.717173142692445,-0.9775581346388905,0.01,0.0,0.0,0.0,0.01,0.0,0.0,0.0,0.01
1700026483.4038315,51285,1700026483,385232640,gx5_link,0.6600088477134705,0.14746591448783875,0.1606120616197586,0.7189199328422546,0.01,0.0,0.0,0.0,0.01,0.0,0.0,0.0,0.01,-0.15565559267997742,0.012793594971299171,0.03286786749958992,0.01,0.0,0.0,0.0,0.01,0.0,0.0,0.0,0.01,-0.03305934565440984,-9.680665659028291,-0.8223018872797488,0.01,0.0,0.0,0.0,0.01,0.0,0.0,0.0,0.01
1700026483.4085183,51286,1700026483,395244288,gx5_link,0.6595572233200073,0.14729925990104675,0.16099238395690918,0.7192835211753845,0.01,0.0,0.0,0.0,0.01,0.0,0.0,0.0,0.01,-0.13669855892658234,0.038437288254499435,0.04857875034213066,0.01,0.0,0.0,0.0,0.01,0.0,0.0,0.0,0.01,-0.0630917081704596,-9.654438161838055,-0.7284415541909635,0.01,0.0,0.0,0.0,0.01,0.0,0.0,0.0,0.01
1700026483.4201112,51287,1700026483,405257984,gx5_link,0.6591706871986389,0.14721305668354034,0.16147689521312714,0.7195467352867126,0.01,0.0,0.0,0.0,0.01,0.0,0.0,0.0,0.01,-0.11727610230445862,0.0639183521270752,0.05683348700404167,0.01,0.0,0.0,0.0,0.01,0.0,0.0,0.0,0.01,-0.08247049480997957,-9.594092121946812,-0.6434962758984416,0.01,0.0,0.0,0.0,0.01,0.0,0.0,0.0,0.01
1700026483.4424722,51288,1700026483,415275008,gx5_link,0.6588436365127563,0.1472351849079132,0.16198010742664337,0.7197286486625671,0.01,0.0,0.0,0.0,0.01,0.0,0.0,0.0,0.01,-0.09680616110563278,0.08434806019067764,0.05152381211519241,0.01,0.0,0.0,0.0,0.01,0.0,0.0,0.0,0.01,-0.0914481573805213,-9.527418048077822,-0.5920396814381703,0.01,0.0,0.0,0.0,0.01,0.0,0.0,0.0,0.01
1700026483.4425514,51289,1700026483,425285632,gx5_link,0.6585526466369629,0.14738044142723083,0.16246643662452698,0.7198556065559387,0.01,0.0,0.0,0.0,0.01,0.0,0.0,0.0,0.01,-0.08098316192626953,0.10028979182243347,0.03833658620715141,0.01,0.0,0.0,0.0,0.01,0.0,0.0,0.0,0.01,-0.06287062189884018,-9.480191602000593,-0.5510147568821907,0.01,0.0,0.0,0.0,0.01,0.0,0.0,0.0,0.01
1700026483.4492269,51290,1700026483,435298304,gx5_link,0.6582711338996887,0.1476324498653412,0.16288430988788605,0.7199670672416687,0.01,0.0,0.0,0.0,0.01,0.0,0.0,0.0,0.01,-0.06942593306303024,0.1057739108800888,0.017868662253022194,0.01,0.0,0.0,0.0,0.01,0.0,0.0,0.0,0.01,-0.03985602690707892,-9.495039042520522,-0.5905646404495463,0.01,0.0,0.0,0.0,0.01,0.0,0.0,0.0,0.01
1700026483.4625342,51291,1700026483,445314048,gx5_link,0.6580062508583069,0.14790378510951996,0.16317832469940186,0.720086932182312,0.01,0.0,0.0,0.0,0.01,0.0,0.0,0.0,0.01,-0.06180432811379433,0.09545443952083588,-0.0013148344587534666,0.01,0.0,0.0,0.0,0.01,0.0,0.0,0.0,0.01,-0.02775655393801862,-9.580748071727156,-0.6638210518509149,0.01,0.0,0.0,0.0,0.01,0.0,0.0,0.0,0.01
1700026483.47437,51292,1700026483,455331584,gx5_link,0.6577445268630981,0.14815852046012878,0.16332204639911652,0.7202410697937012,0.01,0.0,0.0,0.0,0.01,0.0,0.0,0.0,0.01,-0.05750963091850281,0.07485823333263397,-0.021035704761743546,0.01,0.0,0.0,0.0,0.01,0.0,0.0,0.0,0.01,-0.004553480319585651,-9.61427215566635,-0.8052877702452242,0.01,0.0,0.0,0.0,0.01,0.0,0.0,0.0,0.01
1700026483.4797359,51293,1700026483,465345024,gx5_link,0.6574541330337524,0.1483747959136963,0.1632547825574875,0.7204768061637878,0.01,0.0,0.0,0.0,0.01,0.0,0.0,0.0,0.01,-0.0620819553732872,0.044290028512477875,-0.04803480952978134,0.01,0.0,0.0,0.0,0.01,0.0,0.0,0.0,0.01,0.02526092403026996,-9.631432549303769,-0.9049160192109644,0.01,0.0,0.0,0.0,0.01,0.0,0.0,0.0,0.01
1700026483.493973,51294,1700026483,475359744,gx5_link,0.6571494340896606,0.14853814244270325,0.1630079746246338,0.7207770943641663,0.01,0.0,0.0,0.0,0.01,0.0,0.0,0.0,0.01,-0.06785156577825546,0.012357893399894238,-0.06849382817745209,0.01,0.0,0.0,0.0,0.01,0.0,0.0,0.0,0.01,0.05361812444229144,-9.658787004697322,-0.9405832526586949,0.01,0.0,0.0,0.0,0.01,0.0,0.0,0.0,0.01
1700026483.4985883,51295,1700026483,485371392,gx5_link,0.6568472981452942,0.14865705370903015,0.16264696419239044,0.7211093902587891,0.01,0.0,0.0,0.0,0.01,0.0,0.0,0.0,0.01,-0.06815016269683838,-0.00930674560368061,-0.07992495596408844,0.01,0.0,0.0,0.0,0.01,0.0,0.0,0.0,0.01,0.09770399377173744,-9.660497315746545,-1.0040325192622839,0.01,0.0,0.0,0.0,0.01,0.0,0.0,0.0,0.01
1700026483.5104709,51296,1700026483,495384832,gx5_link,0.6565772294998169,0.14870527386665344,0.1622246652841568,0.7214404940605164,0.01,0.0,0.0,0.0,0.01,0.0,0.0,0.0,0.01,-0.06198151037096977,-0.028821079060435295,-0.07972157746553421,0.01,0.0,0.0,0.0,0.01,0.0,0.0,0.0,0.01,0.09220272034117952,-9.708920278131961,-1.1097685105185955,0.01,0.0,0.0,0.0,0.01,0.0,0.0,0.0,0.01
1700026483.5222166,51297,1700026483,505400320,gx5_link,0.6563712954521179,0.1486487239599228,0.1617765873670578,0.7217400074005127,0.01,0.0,0.0,0.0,0.01,0.0,0.0,0.0,0.01,-0.048639021813869476,-0.0503445640206337,-0.07071001827716827,0.01,0.0,0.0,0.0,0.01,0.0,0.0,0.0,0.01,0.07566662804798688,-9.731332600948214,-1.1816799005191772,0.01,0.0,0.0,0.0,0.01,0.0,0.0,0.0,0.01
1700026483.5285454,51298,1700026483,515411200,gx5_link,0.6562458276748657,0.14852672815322876,0.16129601001739502,0.721986711025238,0.01,0.0,0.0,0.0,0.01,0.0,0.0,0.0,0.01,-0.034908466041088104,-0.0654987096786499,-0.06411457061767578,0.01,0.0,0.0,0.0,0.01,0.0,0.0,0.0,0.01,0.06556065556725953,-9.724324768012762,-1.1577718592524529,0.01,0.0,0.0,0.0,0.01,0.0,0.0,0.0,0.01
1700026483.5396392,51299,1700026483,525424384,gx5_link,0.6561769843101501,0.1483665257692337,0.16079263389110565,0.722194492816925,0.01,0.0,0.0,0.0,0.01,0.0,0.0,0.0,0.01,-0.022473210468888283,-0.07529473304748535,-0.05962427705526352,0.01,0.0,0.0,0.0,0.01,0.0,0.0,0.0,0.01,0.02425687525399262,-9.788039992076158,-1.1571453979171813,0.01,0.0,0.0,0.0,0.01,0.0,0.0,0.0,0.01
1700026483.559907,51300,1700026483,535439360,gx5_link,0.6561381220817566,0.148172065615654,0.16030822694301605,0.7223774194717407,0.01,0.0,0.0,0.0,0.01,0.0,0.0,0.0,0.01,-0.01685279794037342,-0.08111786097288132,-0.05362740159034729,0.01,0.0,0.0,0.0,0.01,0.0,0.0,0.0,0.01,-0.04843544740765355,-9.913218861883879,-1.1115716144178063,0.01,0.0,0.0,0.0,0.01,0.0,0.0,0.0,0.01
1700026483.5645466,51301,1700026483,545455872,gx5_link,0.6561557650566101,0.14794860780239105,0.15989021956920624,0.7224997878074646,0.01,0.0,0.0,0.0,0.01,0.0,0.0,0.0,0.01,-0.01037996169179678,-0.07660795748233795,-0.04176056385040283,0.01,0.0,0.0,0.0,0.01,0.0,0.0,0.0,0.01,-0.14917139275381341,-10.018783515161275,-0.9612081806015222,0.01,0.0,0.0,0.0,0.01,0.0,0.0,0.0,0.01
1700026483.5701556,51302,1700026483,555469056,gx5_link,0.656161367893219,0.1477659046649933,0.15954060852527618,0.7226093411445618,0.01,0.0,0.0,0.0,0.01,0.0,0.0,0.0,0.01,-0.01563325710594654,-0.06339329481124878,-0.04072162136435509,0.01,0.0,0.0,0.0,0.01,0.0,0.0,0.0,0.01,-0.23214933476243166,-10.006872128093242,-0.8286606086567043,0.01,0.0,0.0,0.0,0.01,0.0,0.0,0.0,0.01
1700026483.584723,51303,1700026483,565485568,gx5_link,0.6560840606689453,0.14769579470157623,0.15925315022468567,0.7227573990821838,0.01,0.0,0.0,0.0,0.01,0.0,0.0,0.0,0.01,-0.031096892431378365,-0.04225161299109459,-0.04880151525139809,0.01,0.0,0.0,0.0,0.01,0.0,0.0,0.0,0.01,-0.2809720553214662,-9.961447763001917,-0.7513579540718346,0.01,0.0,0.0,0.0,0.01,0.0,0.0,0.0,0.01
1700026483.5892007,51304,1700026483,575496192,gx5_link,0.6558769941329956,0.14776869118213654,0.15900464355945587,0.7229849696159363,0.01,0.0,0.0,0.0,0.01,0.0,0.0,0.0,0.01,-0.05269081890583038,-0.016466869041323662,-0.06779676675796509,0.01,0.0,0.0,0.0,0.01,0.0,0.0,0.0,0.01,-0.29667678852416574,-9.904650940024853,-0.7798604104567318,0.01,0.0,0.0,0.0,0.01,0.0,0.0,0.0,0.01
1700026483.61203,51305,1700026483,585508608,gx5_link,0.655549168586731,0.14797882735729218,0.158738374710083,0.7232978940010071,0.01,0.0,0.0,0.0,0.01,0.0,0.0,0.0,0.01,-0.07282309979200363,0.0049703242257237434,-0.09134518355131149,0.01,0.0,0.0,0.0,0.01,0.0,0.0,0.0,0.01,-0.24290289356485006,-9.824723416829109,-0.870871856920421,0.01,0.0,0.0,0.0,0.01,0.0,0.0,0.0,0.01
1700026483.615161,51306,1700026483,595524352,gx5_link,0.6551157236099243,0.14829213917255402,0.15844275057315826,0.7236911654472351,0.01,0.0,0.0,0.0,0.01,0.0,0.0,0.0,0.01,-0.09045657515525818,0.019304491579532623,-0.11032930761575699,0.01,0.0,0.0,0.0,0.01,0.0,0.0,0.0,0.01,-0.12062538948813453,-9.77121277591586,-0.9823176771908998,0.01,0.0,0.0,0.0,0.01,0.0,0.0,0.0,0.01
1700026483.6194391,51307,1700026483,605536768,gx5_link,0.6546339988708496,0.14864641427993774,0.15812556445598602,0.7241235971450806,0.01,0.0,0.0,0.0,0.01,0.0,0.0,0.0,0.01,-0.09625332802534103,0.026404524222016335,-0.11725284904241562,0.01,0.0,0.0,0.0,0.01,0.0,0.0,0.0,0.01,0.01821559721219819,-9.72362158817947,-1.1418407882142811,0.01,0.0,0.0,0.0,0.01,0.0,0.0,0.0,0.01
1700026483.6299448,51308,1700026483,615549696,gx5_link,0.6541543006896973,0.14894390106201172,0.1578003317117691,0.7245666980743408,0.01,0.0,0.0,0.0,0.01,0.0,0.0,0.0,0.01,-0.09309858083724976,0.020029917359352112,-0.11234859377145767,0.01,0.0,0.0,0.0,0.01,0.0,0.0,0.0,0.01,0.07204519528097007,-9.695762690395116,-1.3777967121854424,0.01,0.0,0.0,0.0,0.01,0.0,0.0,0.0,0.01
1700026483.6418273,51309,1700026483,625564672,gx5_link,0.6537430882453918,0.1491164118051529,0.15739868581295013,0.7249895930290222,0.01,0.0,0.0,0.0,0.01,0.0,0.0,0.0,0.01,-0.08013651520013809,-0.0048913126811385155,-0.10589119791984558,0.01,0.0,0.0,0.0,0.01,0.0,0.0,0.0,0.01,0.08035499136019497,-9.631957449960709,-1.4706456762745976,0.01,0.0,0.0,0.0,0.01,0.0,0.0,0.0,0.01
1700026483.6535158,51310,1700026483,635581184,gx5_link,0.6534393429756165,0.14928844571113586,0.1569691002368927,0.7253211140632629,0.01,0.0,0.0,0.0,0.01,0.0,0.0,0.0,0.01,-0.06433561444282532,-0.01243578176945448,-0.10346134006977081,0.01,0.0,0.0,0.0,0.01,0.0,0.0,0.0,0.01,0.09956773268384858,-9.522864038035273,-1.194694937980175,0.01,0.0,0.0,0.0,0.01,0.0,0.0,0.0,0.01
1700026483.6621993,51311,1700026483,645595392,gx5_link,0.6532219052314758,0.14958569407463074,0.15660178661346436,0.7255350947380066,0.01,0.0,0.0,0.0,0.01,0.0,0.0,0.0,0.01,-0.048645980656147,0.006584819406270981,-0.10309161245822906,0.01,0.0,0.0,0.0,0.01,0.0,0.0,0.0,0.01,0.13504367221002467,-9.49504254965186,-0.8520312551110982,0.01,0.0,0.0,0.0,0.01,0.0,0.0,0.0,0.01
1700026483.6721413,51312,1700026483,655610624,gx5_link,0.6530197858810425,0.14999094605445862,0.15636220574378967,0.7256850004196167,0.01,0.0,0.0,0.0,0.01,0.0,0.0,0.0,0.01,-0.041220419108867645,0.035756029188632965,-0.09529554098844528,0.01,0.0,0.0,0.0,0.01,0.0,0.0,0.0,0.01,0.20400524509483947,-9.53458370192349,-0.7209804975952953,0.01,0.0,0.0,0.0,0.01,0.0,0.0,0.0,0.01
1700026483.6793258,51313,1700026483,665621504,gx5_link,0.6527828574180603,0.15043431520462036,0.1562080681324005,0.7258395552635193,0.01,0.0,0.0,0.0,0.01,0.0,0.0,0.0,0.01,-0.0424809530377388,0.0532381609082222,-0.08639995753765106,0.01,0.0,0.0,0.0,0.01,0.0,0.0,0.0,0.01,0.296500135049317,-9.57167512295544,-0.8292050907969474,0.01,0.0,0.0,0.0,0.01,0.0,0.0,0.0,0.01
1700026483.6894968,51314,1700026483,675633920,gx5_link,0.6524900197982788,0.1508604735136032,0.15604637563228607,0.7260491847991943,0.01,0.0,0.0,0.0,0.01,0.0,0.0,0.0,0.01,-0.050707168877124786,0.055197808891534805,-0.08509673923254013,0.01,0.0,0.0,0.0,0.01,0.0,0.0,0.0,0.01,0.40572153900228436,-9.519583116668462,-0.9740662739351391,0.01,0.0,0.0,0.0,0.01,0.0,0.0,0.0,0.01
1700026483.7015777,51315,1700026483,685648640,gx5_link,0.6521763801574707,0.15125134587287903,0.15576572716236115,0.7263099551200867,0.01,0.0,0.0,0.0,0.01,0.0,0.0,0.0,0.01,-0.05647042766213417,0.0384068600833416,-0.09311550855636597,0.01,0.0,0.0,0.0,0.01,0.0,0.0,0.0,0.01,0.5261103615218773,-9.467321014511585,-1.0204053427185862,0.01,0.0,0.0,0.0,0.01,0.0,0.0,0.0,0.01
1700026483.7093103,51316,1700026483,695660032,gx5_link,0.6518532037734985,0.15155082941055298,0.1553843915462494,0.726619303226471,0.01,0.0,0.0,0.0,0.01,0.0,0.0,0.0,0.01,-0.062071412801742554,0.011690419167280197,-0.093938447535038,0.01,0.0,0.0,0.0,0.01,0.0,0.0,0.0,0.01,0.6240238789916038,-9.52835152953565,-1.0632482399493455,0.01,0.0,0.0,0.0,0.01,0.0,0.0,0.0,0.01
1700026483.723561,51317,1700026483,705672960,gx5_link,0.6515703797340393,0.15167808532714844,0.15495367348194122,0.7269382476806641,0.01,0.0,0.0,0.0,0.01,0.0,0.0,0.0,0.01,-0.061227720230817795,-0.0191876832395792,-0.07841040939092636,0.01,0.0,0.0,0.0,0.01,0.0,0.0,0.0,0.01,0.7056263496622442,-9.625440615412593,-1.1384201661158353,0.01,0.0,0.0,0.0,0.01,0.0,0.0,0.0,0.01
1700026483.7333822,51318,1700026483,715689472,gx5_link,0.6513258218765259,0.15156972408294678,0.15451517701148987,0.7272732257843018,0.01,0.0,0.0,0.0,0.01,0.0,0.0,0.0,0.01,-0.05952082574367523,-0.054846297949552536,-0.04801078513264656,0.01,0.0,0.0,0.0,0.01,0.0,0.0,0.0,0.01,0.7601851844541728,-9.686866851755976,-1.2677785866305231,0.01,0.0,0.0,0.0,0.01,0.0,0.0,0.0,0.01
1700026483.7438478,51319,1700026483,725706240,gx5_link,0.6512027382850647,0.15117374062538147,0.15407802164554596,0.7275585532188416,0.01,0.0,0.0,0.0,0.01,0.0,0.0,0.0,0.01,-0.044570211321115494,-0.09726341813802719,-0.007835738360881805,0.01,0.0,0.0,0.0,0.01,0.0,0.0,0.0,0.01,0.7472805485650896,-9.745929866099358,-1.3228557462081312,0.01,0.0,0.0,0.0,0.01,0.0,0.0,0.0,0.01
1700026483.7503564,51320,1700026483,735719424,gx5_link,0.6512489318847656,0.15049970149993896,0.15367020666599274,0.7277432084083557,0.01,0.0,0.0,0.0,0.01,0.0,0.0,0.0,0.01,-0.023133259266614914,-0.1358432173728943,0.03643333166837692,0.01,0.0,0.0,0.0,0.01,0.0,0.0,0.0,0.01,0.7092546231620013,-9.757970432505012,-1.2341393518790602,0.01,0.0,0.0,0.0,0.01,0.0,0.0,0.0,0.01
1700026483.7623448,51321,1700026483,745734400,gx5_link,0.6514415740966797,0.1496816724538803,0.15332664549350739,0.7278119325637817,0.01,0.0,0.0,0.0,0.01,0.0,0.0,0.0,0.01,-0.0022647324949502945,-0.15631189942359924,0.070464588701725,0.01,0.0,0.0,0.0,0.01,0.0,0.0,0.0,0.01,0.6129033500403166,-9.809898772662878,-0.9783677705213427,0.01,0.0,0.0,0.0,0.01,0.0,0.0,0.0,0.01
1700026483.7776132,51322,1700026483,755745280,gx5_link,0.651723325252533,0.14875932037830353,0.1531463861465454,0.7277868390083313,0.01,0.0,0.0,0.0,0.01,0.0,0.0,0.0,0.01,0.005656924098730087,-0.1566658467054367,0.107298843562603,0.01,0.0,0.0,0.0,0.01,0.0,0.0,0.0,0.01,0.4567808412406593,-9.954697704219818,-0.7221837359052151,0.01,0.0,0.0,0.0,0.01,0.0,0.0,0.0,0.01
1700026483.7796352,51323,1700026483,765757696,gx5_link,0.652010440826416,0.14779773354530334,0.15317828953266144,0.7277188301086426,0.01,0.0,0.0,0.0,0.01,0.0,0.0,0.0,0.01,0.001009636209346354,-0.1387130171060562,0.14057639241218567,0.01,0.0,0.0,0.0,0.01,0.0,0.0,0.0,0.01,0.30765980870090426,-10.000433034956455,-0.5781206078095361,0.01,0.0,0.0,0.0,0.01,0.0,0.0,0.0,0.01
1700026483.791556,51324,1700026483,775772416,gx5_link,0.6522415280342102,0.14685674011707306,0.15341658890247345,0.7276521325111389,0.01,0.0,0.0,0.0,0.01,0.0,0.0,0.0,0.01,-0.01108629535883665,-0.10976807028055191,0.16144609451293945,0.01,0.0,0.0,0.0,0.01,0.0,0.0,0.0,0.01,0.1527974012312479,-9.980570981144904,-0.4987347902750596,0.01,0.0,0.0,0.0,0.01,0.0,0.0,0.0,0.01
1700026483.7991765,51325,1700026483,785783808,gx5_link,0.6524175405502319,0.14600437879562378,0.15381278097629547,0.7275820970535278,0.01,0.0,0.0,0.0,0.01,0.0,0.0,0.0,0.01,-0.02169255167245865,-0.0756361186504364,0.17206960916519165,0.01,0.0,0.0,0.0,0.01,0.0,0.0,0.0,0.01,0.05622761738752015,-9.949588982903958,-0.46028603635001925,0.01,0.0,0.0,0.0,0.01,0.0,0.0,0.0,0.01
1700026483.8101912,51326,1700026483,795796736,gx5_link,0.6525149941444397,0.14527106285095215,0.1542978435754776,0.7275387644767761,0.01,0.0,0.0,0.0,0.01,0.0,0.0,0.0,0.01,-0.031724538654088974,-0.0442512072622776,0.1671014130115509,0.01,0.0,0.0,0.0,0.01,0.0,0.0,0.0,0.01,0.033866540701314805,-9.89866777396202,-0.5835924633493647,0.01,0.0,0.0,0.0,0.01,0.0,0.0,0.0,0.01
1700026483.8226671,51327,1700026483,805811968,gx5_link,0.6524863243103027,0.14462250471115112,0.15475334227085114,0.7275969386100769,0.01,0.0,0.0,0.0,0.01,0.0,0.0,0.0,0.01,-0.04821408540010452,-0.030924394726753235,0.14868104457855225,0.01,0.0,0.0,0.0,0.01,0.0,0.0,0.0,0.01,0.028846696395438628,-9.901934082281588,-0.8697454101737588,0.01,0.0,0.0,0.0,0.01,0.0,0.0,0.0,0.01
1700026483.8353262,51328,1700026483,815830016,gx5_link,0.6523386836051941,0.14399315416812897,0.1550891399383545,0.727782666683197,0.01,0.0,0.0,0.0,0.01,0.0,0.0,0.0,0.01,-0.06792867183685303,-0.0390162318944931,0.12429644912481308,0.01,0.0,0.0,0.0,0.01,0.0,0.0,0.0,0.01,0.03782505080243572,-9.904746801614762,-1.1092829189587383,0.01,0.0,0.0,0.0,0.01,0.0,0.0,0.0,0.01
1700026483.8486228,51329,1700026483,825841920,gx5_link,0.6521359086036682,0.14334173500537872,0.1552577167749405,0.7280569672584534,0.01,0.0,0.0,0.0,0.01,0.0,0.0,0.0,0.01,-0.08102209866046906,-0.059750478714704514,0.09914885461330414,0.01,0.0,0.0,0.0,0.01,0.0,0.0,0.0,0.01,0.052594179088878444,-9.873328750044108,-1.244681642550975,0.01,0.0,0.0,0.0,0.01,0.0,0.0,0.0,0.01
1700026483.8587606,51330,1700026483,837857792,gx5_link,0.6519171595573425,0.14263808727264404,0.15521587431430817,0.728399932384491,0.01,0.0,0.0,0.0,0.01,0.0,0.0,0.0,0.01,-0.0850793719291687,-0.09217019379138947,0.0738425925374031,0.01,0.0,0.0,0.0,0.01,0.0,0.0,0.0,0.01,0.026324164781032593,-9.899186829400062,-1.397279411290586,0.01,0.0,0.0,0.0,0.01,0.0,0.0,0.0,0.01
1700026483.8636985,51331,1700026483,847868928,gx5_link,0.6517271399497986,0.14185316860675812,0.15504170954227448,0.7287602424621582,0.01,0.0,0.0,0.0,0.01,0.0,0.0,0.0,0.01,-0.08033020794391632,-0.12054871022701263,0.06203985959291458,0.01,0.0,0.0,0.0,0.01,0.0,0.0,0.0,0.01,-0.047159760349453426,-9.914193844395875,-1.492706847565621,0.01,0.0,0.0,0.0,0.01,0.0,0.0,0.0,0.01
1700026483.8724895,51332,1700026483,857882112,gx5_link,0.651592493057251,0.1410120129585266,0.15479546785354614,0.7290961742401123,0.01,0.0,0.0,0.0,0.01,0.0,0.0,0.0,0.01,-0.07103440165519714,-0.14156441390514374,0.05389188975095749,0.01,0.0,0.0,0.0,0.01,0.0,0.0,0.0,0.01,-0.16690140297273173,-9.880545257294177,-1.4695087811991572,0.01,0.0,0.0,0.0,0.01,0.0,0.0,0.0,0.01
1700026483.889662,51333,1700026483,867898112,gx5_link,0.6514978408813477,0.14021268486976624,0.15450963377952576,0.7293955087661743,0.01,0.0,0.0,0.0,0.01,0.0,0.0,0.0,0.01,-0.06444431096315384,-0.14429661631584167,0.04105953127145767,0.01,0.0,0.0,0.0,0.01,0.0,0.0,0.0,0.01,-0.27496298763239757,-9.794535199314355,-1.3175979718104005,0.01,0.0,0.0,0.0,0.01,0.0,0.0,0.0,0.01
1700026483.8917665,51334,1700026483,877910016,gx5_link,0.6514080166816711,0.13956990838050842,0.15424744784832,0.7296544909477234,0.01,0.0,0.0,0.0,0.01,0.0,0.0,0.0,0.01,-0.0615663155913353,-0.1251247078180313,0.024763798341155052,0.01,0.0,0.0,0.0,0.01,0.0,0.0,0.0,0.01,-0.3564146333891898,-9.75849357959628,-1.0896062316514552,0.01,0.0,0.0,0.0,0.01,0.0,0.0,0.0,0.01
1700026483.902688,51335,1700026483,887923200,gx5_link,0.6512929201126099,0.13908864557743073,0.15405549108982086,0.7298895716667175,0.01,0.0,0.0,0.0,0.01,0.0,0.0,0.0,0.01,-0.06297526508569717,-0.09440711885690689,0.01186047587543726,0.01,0.0,0.0,0.0,0.01,0.0,0.0,0.0,0.01,-0.40667474807389076,-9.77930840408802,-0.9764962044958024,0.01,0.0,0.0,0.0,0.01,0.0,0.0,0.0,0.01
1700026483.914375,51336,1700026483,897938176,gx5_link,0.6511368751525879,0.1387384682893753,0.15396630764007568,0.7301142811775208,0.01,0.0,0.0,0.0,0.01,0.0,0.0,0.0,0.01,-0.06573296338319778,-0.0612509623169899,0.007035745773464441,0.01,0.0,0.0,0.0,0.01,0.0,0.0,0.0,0.01,-0.4492683832513168,-9.831031577062607,-0.9562116874884814,0.01,0.0,0.0,0.0,0.01,0.0,0.0,0.0,0.01
1700026483.9274943,51337,1700026483,907956480,gx5_link,0.6509401798248291,0.1385042667388916,0.15397420525550842,0.7303324341773987,0.01,0.0,0.0,0.0,0.01,0.0,0.0,0.0,0.01,-0.06898346543312073,-0.029737506061792374,0.0032307361252605915,0.01,0.0,0.0,0.0,0.01,0.0,0.0,0.0,0.01,-0.4662753398926928,-9.78253496491909,-0.9735715492207556,0.01,0.0,0.0,0.0,0.01,0.0,0.0,0.0,0.01
1700026483.934567,51338,1700026483,917971456,gx5_link,0.6506887078285217,0.1384568065404892,0.15401232242584229,0.7305574417114258,0.01,0.0,0.0,0.0,0.01,0.0,0.0,0.0,0.01,-0.07308989763259888,0.003187168389558792,-0.016963906586170197,0.01,0.0,0.0,0.0,0.01,0.0,0.0,0.0,0.01,-0.4535733139036223,-9.634404843112826,-0.9664094025064259,0.01,0.0,0.0,0.0,0.01,0.0,0.0,0.0,0.01
1700026483.9480243,51339,1700026483,927986688,gx5_link,0.6503604054450989,0.13866117596626282,0.1540229618549347,0.7308087348937988,0.01,0.0,0.0,0.0,0.01,0.0,0.0,0.0,0.01,-0.08036268502473831,0.03809874504804611,-0.04955638200044632,0.01,0.0,0.0,0.0,0.01,0.0,0.0,0.0,0.01,-0.4049465360417962,-9.542126372388005,-0.9095801385644823,0.01,0.0,0.0,0.0,0.01,0.0,0.0,0.0,0.01
1700026483.951667,51340,1700026483,937998848,gx5_link,0.6499667763710022,0.13909359276294708,0.15405960381031036,0.731069028377533,0.01,0.0,0.0,0.0,0.01,0.0,0.0,0.0,0.01,-0.08415546268224716,0.07291312515735626,-0.07539467513561249,0.01,0.0,0.0,0.0,0.01,0.0,0.0,0.0,0.01,-0.321737799218297,-9.559117839199304,-0.9376067941311746,0.01,0.0,0.0,0.0,0.01,0.0,0.0,0.0,0.01
1700026483.9633627,51341,1700026483,948012544,gx5_link,0.6495137810707092,0.13962793350219727,0.15409788489341736,0.7313615679740906,0.01,0.0,0.0,0.0,0.01,0.0,0.0,0.0,0.01,-0.08611886948347092,0.0927315428853035,-0.08869218826293945,0.01,0.0,0.0,0.0,0.01,0.0,0.0,0.0,0.01,-0.1765769755464047,-9.54618236978054,-1.1775172278817743,0.01,0.0,0.0,0.0,0.01,0.0,0.0,0.0,0.01
1700026483.9762175,51342,1700026483,958029312,gx5_link,0.6490335464477539,0.14014926552772522,0.15405628085136414,0.7316969037055969,0.01,0.0,0.0,0.0,0.01,0.0,0.0,0.0,0.01,-0.08309883624315262,0.08745793253183365,-0.09688369929790497,0.01,0.0,0.0,0.0,0.01,0.0,0.0,0.0,0.01,-0.05866149347093887,-9.524673133283853,-1.4761957116171718,0.01,0.0,0.0,0.0,0.01,0.0,0.0,0.0,0.01
1700026483.9804728,51343,1700026483,968040448,gx5_link,0.6485785245895386,0.14054857194423676,0.15386565029621124,0.7320637702941895,0.01,0.0,0.0,0.0,0.01,0.0,0.0,0.0,0.01,-0.07567905634641647,0.056838132441043854,-0.10133220255374908,0.01,0.0,0.0,0.0,0.01,0.0,0.0,0.0,0.01,0.018257840335171204,-9.498087908697128,-1.7169598395876586,0.01,0.0,0.0,0.0,0.01,0.0,0.0,0.0,0.01
1700026483.993368,51344,1700026483,978054400,gx5_link,0.6481949687004089,0.14080069959163666,0.15350563824176788,0.7324305176734924,0.01,0.0,0.0,0.0,0.01,0.0,0.0,0.0,0.01,-0.06461817771196365,0.015264969319105148,-0.1047419011592865,0.01,0.0,0.0,0.0,0.01,0.0,0.0,0.0,0.01,0.05171935531599447,-9.446298684749006,-1.7816304646797476,0.01,0.0,0.0,0.0,0.01,0.0,0.0,0.0,0.01
1700026484.0101998,51345,1700026483,988070656,gx5_link,0.6478946805000305,0.14096471667289734,0.15303480625152588,0.7327631115913391,0.01,0.0,0.0,0.0,0.01,0.0,0.0,0.0,0.01,-0.051917921751737595,-0.015428818762302399,-0.10655196756124496,0.01,0.0,0.0,0.0,0.01,0.0,0.0,0.0,0.01,0.03498878391360631,-9.423048742064832,-1.6902267309628427,0.01,0.0,0.0,0.0,0.01,0.0,0.0,0.0,0.01
1700026484.0172172,51346,1700026483,998088704,gx5_link,0.6477143168449402,0.1410527527332306,0.15256163477897644,0.7330042719841003,0.01,0.0,0.0,0.0,0.01,0.0,0.0,0.0,0.01,-0.03264890983700752,-0.03188994154334068,-0.09603499621152878,0.01,0.0,0.0,0.0,0.01,0.0,0.0,0.0,0.01,-0.02822559393858537,-9.468507593947649,-1.5262214330241084,0.01,0.0,0.0,0.0,0.01,0.0,0.0,0.0,0.01
1700026484.0234792,51347,1700026484,8101632,gx5_link,0.6476077437400818,0.14115335047245026,0.15218089520931244,0.7331581711769104,0.01,0.0,0.0,0.0,0.01,0.0,0.0,0.0,0.01,-0.018608152866363525,-0.02407125011086464,-0.08421200513839722,0.01,0.0,0.0,0.0,0.01,0.0,0.0,0.0,0.01,-0.08744891341021284,-9.458091413873433,-1.366179485758394,0.01,0.0,0.0,0.0,0.01,0.0,0.0,0.0,0.01
1700026484.0350735,51348,1700026484,18116608,gx5_link,0.6475470662117004,0.1413198709487915,0.15190431475639343,0.7332370281219482,0.01,0.0,0.0,0.0,0.01,0.0,0.0,0.0,0.01,-0.007147073745727539,-0.005672379396855831,-0.07468203455209732,0.01,0.0,0.0,0.0,0.01,0.0,0.0,0.0,0.01,-0.1030222570518963,-9.391476376715302,-1.1881036499563604,0.01,0.0,0.0,0.0,0.01,0.0,0.0,0.0,0.01
1700026484.0412471,51349,1700026484,28128000,gx5_link,0.647506594657898,0.14160895347595215,0.15170834958553314,0.7332575917243958,0.01,0.0,0.0,0.0,0.01,0.0,0.0,0.0,0.01,0.0019853701815009117,0.021716168150305748,-0.07421975582838058,0.01,0.0,0.0,0.0,0.01,0.0,0.0,0.0,0.01,-0.08440682403426616,-9.370486780178547,-1.0764963555138558,0.01,0.0,0.0,0.0,0.01,0.0,0.0,0.0,0.01
1700026484.0530584,51350,1700026484,38141696,gx5_link,0.6474878787994385,0.14197750389575958,0.15158602595329285,0.7332281470298767,0.01,0.0,0.0,0.0,0.01,0.0,0.0,0.0,0.01,0.010662591084837914,0.04312615841627121,-0.0704246386885643,0.01,0.0,0.0,0.0,0.01,0.0,0.0,0.0,0.01,-0.07544870641441084,-9.455198030519485,-1.0677813533343374,0.01,0.0,0.0,0.0,0.01,0.0,0.0,0.0,0.01
1700026484.0689063,51351,1700026484,48156928,gx5_link,0.6474833488464355,0.14236286282539368,0.15153473615646362,0.7331680655479431,0.01,0.0,0.0,0.0,0.01,0.0,0.0,0.0,0.01,0.015326217748224735,0.05703064426779747,-0.06000862270593643,0.01,0.0,0.0,0.0,0.01,0.0,0.0,0.0,0.01,-0.044181945548485965,-9.532631983333825,-1.0435449568960815,0.01,0.0,0.0,0.0,0.01,0.0,0.0,0.0,0.01
1700026484.0722597,51352,1700026484,58169088,gx5_link,0.6475226879119873,0.14274479448795319,0.1515553891658783,0.7330547571182251,0.01,0.0,0.0,0.0,0.01,0.0,0.0,0.0,0.01,0.023558760061860085,0.06640174984931946,-0.04636462777853012,0.01,0.0,0.0,0.0,0.01,0.0,0.0,0.0,0.01,0.0005066437664514524,-9.55062064448893,-0.982038421858102,0.01,0.0,0.0,0.0,0.01,0.0,0.0,0.0,0.01
1700026484.0824556,51353,1700026484,68182784,gx5_link,0.6475979089736938,0.14312991499900818,0.15163543820381165,0.732896625995636,0.01,0.0,0.0,0.0,0.01,0.0,0.0,0.0,0.01,0.03403409197926521,0.07548803836107254,-0.03590807318687439,0.01,0.0,0.0,0.0,0.01,0.0,0.0,0.0,0.01,0.03672176116907503,-9.53836731211543,-0.9932163070198148,0.01,0.0,0.0,0.0,0.01,0.0,0.0,0.0,0.01
1700026484.0943,51354,1700026484,78198272,gx5_link,0.6476778388023376,0.14352448284626007,0.1517258882522583,0.7327300906181335,0.01,0.0,0.0,0.0,0.01,0.0,0.0,0.0,0.01,0.03918125852942467,0.0786871388554573,-0.03233795240521431,0.01,0.0,0.0,0.0,0.01,0.0,0.0,0.0,0.01,0.07796708244350738,-9.52904126536548,-1.0746239857707172,0.01,0.0,0.0,0.0,0.01,0.0,0.0,0.0,0.01
1700026484.1060567,51355,1700026484,88215040,gx5_link,0.6477512121200562,0.14392556250095367,0.1517772525548935,0.7325758934020996,0.01,0.0,0.0,0.0,0.01,0.0,0.0,0.0,0.01,0.03958001732826233,0.07572290301322937,-0.03663383796811104,0.01,0.0,0.0,0.0,0.01,0.0,0.0,0.0,0.01,0.13318988843634724,-9.551866260635853,-1.1299887301180511,0.01,0.0,0.0,0.0,0.01,0.0,0.0,0.0,0.01
1700026484.1128604,51356,1700026484,98228736,gx5_link,0.6477943062782288,0.14431162178516388,0.15175235271453857,0.732466995716095,0.01,0.0,0.0,0.0,0.01,0.0,0.0,0.0,0.01,0.03591415286064148,0.06598430871963501,-0.044530559331178665,0.01,0.0,0.0,0.0,0.01,0.0,0.0,0.0,0.01,0.19368814148092642,-9.585542904788255,-1.2190817026745526,0.01,0.0,0.0,0.0,0.01,0.0,0.0,0.0,0.01
1700026484.124778,51357,1700026484,108244224,gx5_link,0.6478114724159241,0.14462150633335114,0.15160910785198212,0.7324203848838806,0.01,0.0,0.0,0.0,0.01,0.0,0.0,0.0,0.01,0.03040022775530815,0.041259948164224625,-0.052679818123579025,0.01,0.0,0.0,0.0,0.01,0.0,0.0,0.0,0.01,0.24897021251348778,-9.64372212203443,-1.3536483593568205,0.01,0.0,0.0,0.0,0.01,0.0,0.0,0.0,0.01
1700026484.1299698,51358,1700026484,118255360,gx5_link,0.6478379368782043,0.14479926228523254,0.1513747274875641,0.7324104309082031,0.01,0.0,0.0,0.0,0.01,0.0,0.0,0.0,0.01,0.02819891646504402,0.01136479526758194,-0.049606554210186005,0.01,0.0,0.0,0.0,0.01,0.0,0.0,0.0,0.01,0.2709648761732504,-9.749929749390482,-1.4339499765619634,0.01,0.0,0.0,0.0,0.01,0.0,0.0,0.0,0.01
1700026484.1425996,51359,1700026484,128268288,gx5_link,0.6479213237762451,0.14482620358467102,0.15109655261039734,0.7323886752128601,0.01,0.0,0.0,0.0,0.01,0.0,0.0,0.0,0.01,0.0319691002368927,-0.017458487302064896,-0.03710482642054558,0.01,0.0,0.0,0.0,0.01,0.0,0.0,0.0,0.01,0.2740935661204159,-9.795026197701691,-1.4250572066627443,0.01,0.0,0.0,0.0,0.01,0.0,0.0,0.0,0.01
1700026484.1557434,51360,1700026484,138284032,gx5_link,0.6480386257171631,0.14473269879817963,0.15080028772354126,0.7323644161224365,0.01,0.0,0.0,0.0,0.01,0.0,0.0,0.0,0.01,0.03197537362575531,-0.03947428613901138,-0.024251529946923256,0.01,0.0,0.0,0.0,0.01,0.0,0.0,0.0,0.01,0.26779395451955496,-9.76703636701405,-1.339574971949309,0.01,0.0,0.0,0.0,0.01,0.0,0.0,0.0,0.01
1700026484.1622684,51361,1700026484,148296448,gx5_link,0.6481978893280029,0.14455834031105042,0.15052828192710876,0.7323139905929565,0.01,0.0,0.0,0.0,0.01,0.0,0.0,0.0,0.01,0.033577363938093185,-0.053723327815532684,-0.009946318343281746,0.01,0.0,0.0,0.0,0.01,0.0,0.0,0.0,0.01,0.22935000463379546,-9.796125683376193,-1.2401330393359065,0.01,0.0,0.0,0.0,0.01,0.0,0.0,0.0,0.01
1700026484.172171,51362,1700026484,158309632,gx5_link,0.6483780145645142,0.14431430399417877,0.15033145248889923,0.732243001461029,0.01,0.0,0.0,0.0,0.01,0.0,0.0,0.0,0.01,0.033213526010513306,-0.05601797252893448,0.008514943532645702,0.01,0.0,0.0,0.0,0.01,0.0,0.0,0.0,0.01,0.16654303625542669,-9.86291373901367,-1.1534050423450768,0.01,0.0,0.0,0.0,0.01,0.0,0.0,0.0,0.01
1700026484.1839547,51363,1700026484,168324608,gx5_link,0.6485782265663147,0.14401082694530487,0.1502561867237091,0.732140839099884,0.01,0.0,0.0,0.0,0.01,0.0,0.0,0.0,0.01,0.03128904104232788,-0.049427859485149384,0.03281474485993385,0.01,0.0,0.0,0.0,0.01,0.0,0.0,0.0,0.01,0.10930280775926075,-9.8844942871809,-1.07961697175242,0.01,0.0,0.0,0.0,0.01,0.0,0.0,0.0,0.01
1700026484.1957185,51364,1700026484,178340864,gx5_link,0.6487666964530945,0.143707275390625,0.1503199189901352,0.7320205569267273,0.01,0.0,0.0,0.0,0.01,0.0,0.0,0.0,0.01,0.027187064290046692,-0.03384217992424965,0.05184568837285042,0.01,0.0,0.0,0.0,0.01,0.0,0.0,0.0,0.01,0.08580779513968154,-9.80882909760475,-1.006193423623219,0.01,0.0,0.0,0.0,0.01,0.0,0.0,0.0,0.01
1700026484.2042553,51365,1700026484,188355328,gx5_link,0.6489123702049255,0.1434507817029953,0.15047504007816315,0.7319097518920898,0.01,0.0,0.0,0.0,0.01,0.0,0.0,0.0,0.01,0.020055826753377914,-0.014496224001049995,0.06045377999544144,0.01,0.0,0.0,0.0,0.01,0.0,0.0,0.0,0.01,0.08820892886412329,-9.712190093582867,-1.003808647378534,0.01,0.0,0.0,0.0,0.01,0.0,0.0,0.0,0.01
1700026484.2149696,51366,1700026484,198370560,gx5_link,0.6490306854248047,0.14321169257164001,0.15067480504512787,0.7318105697631836,0.01,0.0,0.0,0.0,0.01,0.0,0.0,0.0,0.01,0.015955395996570587,-0.005514710210263729,0.06576193869113922,0.01,0.0,0.0,0.0,0.01,0.0,0.0,0.0,0.01,0.09214720902796834,-9.707557173085211,-1.0716684969659893,0.01,0.0,0.0,0.0,0.01,0.0,0.0,0.0,0.01
1700026484.2213988,51367,1700026484,208382464,gx5_link,0.6491106748580933,0.1429596096277237,0.1508750170469284,0.7317476272583008,0.01,0.0,0.0,0.0,0.01,0.0,0.0,0.0,0.01,0.008606460876762867,-0.0042357854545116425,0.06614784151315689,0.01,0.0,0.0,0.0,0.01,0.0,0.0,0.0,0.01,0.11536868366948329,-9.695399702301621,-1.158888222996518,0.01,0.0,0.0,0.0,0.01,0.0,0.0,0.0,0.01
1700026484.2335935,51368,1700026484,218395904,gx5_link,0.6491328477859497,0.14270037412643433,0.15103141963481903,0.7317463159561157,0.01,0.0,0.0,0.0,0.01,0.0,0.0,0.0,0.01,-0.004185173660516739,-0.009194448590278625,0.058831121772527695,0.01,0.0,0.0,0.0,0.01,0.0,0.0,0.0,0.01,0.13733180141351184,-9.658632106396555,-1.2251184986207633,0.01,0.0,0.0,0.0,0.01,0.0,0.0,0.0,0.01
1700026484.2455976,51369,1700026484,228411392,gx5_link,0.6491247415542603,0.14240825176239014,0.15114639699459076,0.7317866683006287,0.01,0.0,0.0,0.0,0.01,0.0,0.0,0.0,0.01,-0.011761710979044437,-0.018192829564213753,0.05659504607319832,0.01,0.0,0.0,0.0,0.01,0.0,0.0,0.0,0.01,0.12018900736486539,-9.674925654071568,-1.2626779024906456,0.01,0.0,0.0,0.0,0.01,0.0,0.0,0.0,0.01
1700026484.2499232,51370,1700026484,238422016,gx5_link,0.6491600275039673,0.14207014441490173,0.15127374231815338,0.7317947745323181,0.01,0.0,0.0,0.0,0.01,0.0,0.0,0.0,0.01,-0.006960512138903141,-0.02359544113278389,0.06346884369850159,0.01,0.0,0.0,0.0,0.01,0.0,0.0,0.0,0.01,0.08516261083763092,-9.651132690551876,-1.234549978506565,0.01,0.0,0.0,0.0,0.01,0.0,0.0,0.0,0.01
1700026484.2629275,51371,1700026484,248435712,gx5_link,0.6492487788200378,0.14171579480171204,0.15144777297973633,0.7317487597465515,0.01,0.0,0.0,0.0,0.01,0.0,0.0,0.0,0.01,0.0040458571165800095,-0.02091323584318161,0.07359518855810165,0.01,0.0,0.0,0.0,0.01,0.0,0.0,0.0,0.01,0.06805861442941241,-9.600169980555773,-1.210691621600464,0.01,0.0,0.0,0.0,0.01,0.0,0.0,0.0,0.01
1700026484.2754006,51372,1700026484,258450944,gx5_link,0.6493786573410034,0.14138339459896088,0.1516820192337036,0.7316493391990662,0.01,0.0,0.0,0.0,0.01,0.0,0.0,0.0,0.01,0.01426518801599741,-0.01002847496420145,0.08144831657409668,0.01,0.0,0.0,0.0,0.01,0.0,0.0,0.0,0.01,0.04481943516784813,-9.581975567695498,-1.1492331634879112,0.01,0.0,0.0,0.0,0.01,0.0,0.0,0.0,0.01
1700026484.2872393,51373,1700026484,268468224,gx5_link,0.6495236158370972,0.14111725986003876,0.15197968482971191,0.7315102219581604,0.01,0.0,0.0,0.0,0.01,0.0,0.0,0.0,0.01,0.022021563723683357,0.004200599621981382,0.08504927158355713,0.01,0.0,0.0,0.0,0.01,0.0,0.0,0.0,0.01,0.04148082423047162,-9.546186461433768,-1.1316669655285776,0.01,0.0,0.0,0.0,0.01,0.0,0.0,0.0,0.01
1700026484.2926033,51374,1700026484,278480896,gx5_link,0.6497019529342651,0.14089098572731018,0.15234076976776123,0.7313203811645508,0.01,0.0,0.0,0.0,0.01,0.0,0.0,0.0,0.01,0.03325432166457176,0.01917489990592003,0.09111897647380829,0.01,0.0,0.0,0.0,0.01,0.0,0.0,0.0,0.01,0.01972412947847042,-9.565927519214153,-1.1674537337027489,0.01,0.0,0.0,0.0,0.01,0.0,0.0,0.0,0.01
1700026484.3042734,51375,1700026484,288495104,gx5_link,0.6499246954917908,0.1406637728214264,0.15274907648563385,0.731080949306488,0.01,0.0,0.0,0.0,0.01,0.0,0.0,0.0,0.01,0.0475519597530365,0.027576366439461708,0.10050152242183685,0.01,0.0,0.0,0.0,0.01,0.0,0.0,0.0,0.01,-0.0027306376755659584,-9.58926338661611,-1.2139037885800004,0.01,0.0,0.0,0.0,0.01,0.0,0.0,0.0,0.01
1700026484.3104665,51376,1700026484,298506240,gx5_link,0.6501912474632263,0.14043110609054565,0.15318559110164642,0.7307973504066467,0.01,0.0,0.0,0.0,0.01,0.0,0.0,0.0,0.01,0.058077167719602585,0.031068995594978333,0.10739220678806305,0.01,0.0,0.0,0.0,0.01,0.0,0.0,0.0,0.01,-0.0008996079433938575,-9.570124970903992,-1.214405454491824,0.01,0.0,0.0,0.0,0.01,0.0,0.0,0.0,0.01
1700026484.323002,51377,1700026484,308519168,gx5_link,0.6504894495010376,0.14021553099155426,0.15362833440303802,0.7304803133010864,0.01,0.0,0.0,0.0,0.01,0.0,0.0,0.0,0.01,0.06863085925579071,0.033762987703084946,0.10891978442668915,0.01,0.0,0.0,0.0,0.01,0.0,0.0,0.0,0.01,0.009518377855364815,-9.539438156217336,-1.234239158991724,0.01,0.0,0.0,0.0,0.01,0.0,0.0,0.0,0.01
1700026484.3346624,51378,1700026484,318534144,gx5_link,0.650800347328186,0.14002272486686707,0.15403245389461517,0.7301552295684814,0.01,0.0,0.0,0.0,0.01,0.0,0.0,0.0,0.01,0.0747440755367279,0.03374139964580536,0.10338184982538223,0.01,0.0,0.0,0.0,0.01,0.0,0.0,0.0,0.01,0.019556894569227004,-9.527810846787691,-1.2425854009240864,0.01,0.0,0.0,0.0,0.01,0.0,0.0,0.0,0.01
1700026484.3412607,51379,1700026484,328545536,gx5_link,0.6511219143867493,0.13984288275241852,0.15436996519565582,0.7298316359519958,0.01,0.0,0.0,0.0,0.01,0.0,0.0,0.0,0.01,0.08036724478006363,0.027587613090872765,0.09449034184217453,0.01,0.0,0.0,0.0,0.01,0.0,0.0,0.0,0.01,0.020616134998307098,-9.577078443303703,-1.2828593975149094,0.01,0.0,0.0,0.0,0.01,0.0,0.0,0.0,0.01
1700026484.3530524,51380,1700026484,338558976,gx5_link,0.6514694690704346,0.13964839279651642,0.154648095369339,0.7294996976852417,0.01,0.0,0.0,0.0,0.01,0.0,0.0,0.0,0.01,0.08626584708690643,0.017389295622706413,0.08744262158870697,0.01,0.0,0.0,0.0,0.01,0.0,0.0,0.0,0.01,0.011175629272544755,-9.607623219171165,-1.3043269868269562,0.01,0.0,0.0,0.0,0.01,0.0,0.0,0.0,0.01
1700026484.3663757,51381,1700026484,348574976,gx5_link,0.651809573173523,0.1394805759191513,0.1548411250114441,0.72918701171875,0.01,0.0,0.0,0.0,0.01,0.0,0.0,0.0,0.01,0.08562806248664856,0.009391973726451397,0.0705079510807991,0.01,0.0,0.0,0.0,0.01,0.0,0.0,0.0,0.01,-0.005685107848152984,-9.608746085721254,-1.2712893712304532,0.01,0.0,0.0,0.0,0.01,0.0,0.0,0.0,0.01
1700026484.3832896,51382,1700026484,359597056,gx5_link,0.6521207094192505,0.13937705755233765,0.15491162240505219,0.7289136052131653,0.01,0.0,0.0,0.0,0.01,0.0,0.0,0.0,0.01,0.07810310274362564,0.0021181197371333838,0.04409262537956238,0.01,0.0,0.0,0.0,0.01,0.0,0.0,0.0,0.01,-0.043791357062011954,-9.662982118299603,-1.1798922864500432,0.01,0.0,0.0,0.0,0.01,0.0,0.0,0.0,0.01
1700026484.3891096,51383,1700026484,369609984,gx5_link,0.6523616313934326,0.13934795558452606,0.15491993725299835,0.7287018895149231,0.01,0.0,0.0,0.0,0.01,0.0,0.0,0.0,0.01,0.06355977058410645,0.002716429065912962,0.019365329295396805,0.01,0.0,0.0,0.0,0.01,0.0,0.0,0.0,0.01,-0.0625327591134468,-9.732522687515615,-1.1123324427224694,0.01,0.0,0.0,0.0,0.01,0.0,0.0,0.0,0.01
1700026484.3945825,51384,1700026484,379624192,gx5_link,0.6525229215621948,0.13938339054584503,0.1549057960510254,0.7285535335540771,0.01,0.0,0.0,0.0,0.01,0.0,0.0,0.0,0.01,0.045880939811468124,0.00968016404658556,0.004656796343624592,0.01,0.0,0.0,0.0,0.01,0.0,0.0,0.0,0.01,-0.0618499599144794,-9.814994634497165,-1.049272175436467,0.01,0.0,0.0,0.0,0.01,0.0,0.0,0.0,0.01
1700026484.4075692,51385,1700026484,389641472,gx5_link,0.6526473760604858,0.13943850994110107,0.1549481898546219,0.7284225821495056,0.01,0.0,0.0,0.0,0.01,0.0,0.0,0.0,0.01,0.03552446514368057,0.020517423748970032,0.0076193963177502155,0.01,0.0,0.0,0.0,0.01,0.0,0.0,0.0,0.01,-0.024416778523440007,-9.863986921203136,-1.018899760461226,0.01,0.0,0.0,0.0,0.01,0.0,0.0,0.0,0.01
1700026484.4135928,51386,1700026484,399653120,gx5_link,0.6527664661407471,0.1394898146390915,0.15507416427135468,0.7282792925834656,0.01,0.0,0.0,0.0,0.01,0.0,0.0,0.0,0.01,0.03520346060395241,0.030482683330774307,0.01962394267320633,0.01,0.0,0.0,0.0,0.01,0.0,0.0,0.0,0.01,0.0023246080216042173,-9.902693960738182,-1.1112589682720602,0.01,0.0,0.0,0.0,0.01,0.0,0.0,0.0,0.01
1700026484.4254742,51387,1700026484,409667840,gx5_link,0.6528842449188232,0.1394762247800827,0.15524624288082123,0.7281395196914673,0.01,0.0,0.0,0.0,0.01,0.0,0.0,0.0,0.01,0.03642643243074417,0.02946018986403942,0.033752769231796265,0.01,0.0,0.0,0.0,0.01,0.0,0.0,0.0,0.01,0.01472497290924075,-9.893101956528424,-1.219150749322772,0.01,0.0,0.0,0.0,0.01,0.0,0.0,0.0,0.01
1700026484.437158,51388,1700026484,419684352,gx5_link,0.6530100107192993,0.13941431045532227,0.15539389848709106,0.7280070781707764,0.01,0.0,0.0,0.0,0.01,0.0,0.0,0.0,0.01,0.034863416105508804,0.02059249021112919,0.03576919436454773,0.01,0.0,0.0,0.0,0.01,0.0,0.0,0.0,0.01,0.00017146099108940687,-9.83421371423006,-1.2326304086208342,0.01,0.0,0.0,0.0,0.01,0.0,0.0,0.0,0.01
1700026484.4431212,51389,1700026484,429696000,gx5_link,0.6531400680541992,0.13936847448349,0.15550193190574646,0.7278761863708496,0.01,0.0,0.0,0.0,0.01,0.0,0.0,0.0,0.01,0.033980853855609894,0.016156325116753578,0.028977956622838974,0.01,0.0,0.0,0.0,0.01,0.0,0.0,0.0,0.01,-0.032111927002773155,-9.796711958831548,-1.1435499302197247,0.01,0.0,0.0,0.0,0.01,0.0,0.0,0.0,0.01
1700026484.453817,51390,1700026484,439709184,gx5_link,0.6532642841339111,0.13938230276107788,0.15558114647865295,0.7277451157569885,0.01,0.0,0.0,0.0,0.01,0.0,0.0,0.0,0.01,0.031138811260461807,0.019441021606326103,0.018722468987107277,0.01,0.0,0.0,0.0,0.01,0.0,0.0,0.0,0.01,-0.04752786300948355,-9.83440076123476,-1.019528121492639,0.01,0.0,0.0,0.0,0.01,0.0,0.0,0.0,0.01
1700026484.472577,51391,1700026484,449730560,gx5_link,0.6533688902854919,0.13942953944206238,0.15570440888404846,0.7276157140731812,0.01,0.0,0.0,0.0,0.01,0.0,0.0,0.0,0.01,0.02774101495742798,0.030992303043603897,0.01903374493122101,0.01,0.0,0.0,0.0,0.01,0.0,0.0,0.0,0.01,-0.04500800740935374,-9.885133754128217,-1.0072836300127208,0.01,0.0,0.0,0.0,0.01,0.0,0.0,0.0,0.01
