Time,header.seq,header.stamp.secs,header.stamp.nsecs,header.frame_id,orientation.x,orientation.y,orientation.z,orientation.w,orientation_covariance_0,orientation_covariance_1,orientation_covariance_2,orientation_covariance_3,orientation_covariance_4,orientation_covariance_5,orientation_covariance_6,orientation_covariance_7,orientation_covariance_8,angular_velocity.x,angular_velocity.y,angular_velocity.z,angular_velocity_covariance_0,angular_velocity_covariance_1,angular_velocity_covariance_2,angular_velocity_covariance_3,angular_velocity_covariance_4,angular_velocity_covariance_5,angular_velocity_covariance_6,angular_velocity_covariance_7,angular_velocity_covariance_8,linear_acceleration.x,linear_acceleration.y,linear_acceleration.z,linear_acceleration_covariance_0,linear_acceleration_covariance_1,linear_acceleration_covariance_2,linear_acceleration_covariance_3,linear_acceleration_covariance_4,linear_acceleration_covariance_5,linear_acceleration_covariance_6,linear_acceleration_covariance_7,linear_acceleration_covariance_8
1700026234.5972183,26578,1700026234,500468224,sensor_wgs84,0.6468190550804138,0.23636212944984436,0.2882412374019623,0.6653383374214172,2.191447609268152e-06,0.0,0.0,0.0,2.3303763521023143e-06,0.0,0.0,0.0,6.121306645649836e-05,-0.015604318119585514,-0.011334482580423355,0.0041627404280006886,0.01,0.0,0.0,0.0,0.01,0.0,0.0,0.0,0.01,0.02193629741668701,-0.17963218688964844,0.04104921221733093,0.01,0.0,0.0,0.0,0.01,0.0,0.0,0.0,0.01
1700026234.5973918,26579,1700026234,510480384,sensor_wgs84,0.6467856168746948,0.23626472055912018,0.2882610261440277,0.6653968691825867,2.191447609268152e-06,0.0,0.0,0.0,2.3303763521023143e-06,0.0,0.0,0.0,6.121306645649836e-05,-0.020177727565169334,-0.012479518540203571,0.01286169234663248,0.01,0.0,0.0,0.0,0.01,0.0,0.0,0.0,0.01,0.019476652145385742,-0.15326309204101562,0.021244704723358154,0.01,0.0,0.0,0.0,0.01,0.0,0.0,0.0,0.01
1700026234.5974488,26580,1700026234,520496384,sensor_wgs84,0.6467652916908264,0.23613356053829193,0.2882847487926483,0.6654528379440308,2.191447609268152e-06,0.0,0.0,0.0,2.3303763521023143e-06,0.0,0.0,0.0,6.121306645649836e-05,-0.015074493363499641,-0.017024148255586624,0.01890512742102146,0.01,0.0,0.0,0.0,0.01,0.0,0.0,0.0,0.01,0.04478299617767334,-0.09500408172607422,0.016143709421157837,0.01,0.0,0.0,0.0,0.01,0.0,0.0,0.0,0.01
1700026234.59756,26581,1700026234,530512384,sensor_wgs84,0.6467471122741699,0.23597076535224915,0.28829047083854675,0.6655259132385254,2.1819253892296797e-06,0.0,0.0,0.0,2.3181574698348203e-06,0.0,0.0,0.0,6.114415505942359e-05,-0.022659825161099434,-0.02128683775663376,0.008487747050821781,0.01,0.0,0.0,0.0,0.01,0.0,0.0,0.0,0.01,0.054205238819122314,-0.027379989624023438,-0.01808863878250122,0.01,0.0,0.0,0.0,0.01,0.0,0.0,0.0,0.01
1700026234.597631,26582,1700026234,540524800,sensor_wgs84,0.6467118263244629,0.2358115315437317,0.28825509548187256,0.665631890296936,2.1819253892296797e-06,0.0,0.0,0.0,2.3181574698348203e-06,0.0,0.0,0.0,6.114415505942359e-05,-0.027341607958078384,-0.03348057344555855,0.0066219051368534565,0.01,0.0,0.0,0.0,0.01,0.0,0.0,0.0,0.01,0.027442097663879395,-0.06703948974609375,-0.07380890846252441,0.01,0.0,0.0,0.0,0.01,0.0,0.0,0.0,0.01
1700026234.5978298,26583,1700026234,550539520,sensor_wgs84,0.6466650366783142,0.23563243448734283,0.28819480538368225,0.6657668948173523,2.1819253892296797e-06,0.0,0.0,0.0,2.3181574698348203e-06,0.0,0.0,0.0,6.114415505942359e-05,-0.0313844196498394,-0.0382697731256485,0.005891457665711641,0.01,0.0,0.0,0.0,0.01,0.0,0.0,0.0,0.01,-0.014259874820709229,-0.04680633544921875,-0.04444068670272827,0.01,0.0,0.0,0.0,0.01,0.0,0.0,0.0,0.01
1700026234.5978734,26584,1700026234,560555776,sensor_wgs84,0.6466132402420044,0.2354564219713211,0.28812795877456665,0.6659083962440491,2.1819253892296797e-06,0.0,0.0,0.0,2.3181574698348203e-06,0.0,0.0,0.0,6.114415505942359e-05,-0.03198546543717384,-0.035022929310798645,0.004541883245110512,0.01,0.0,0.0,0.0,0.01,0.0,0.0,0.0,0.01,-0.04584050178527832,0.0003299713134765625,-0.04582613706588745,0.01,0.0,0.0,0.0,0.01,0.0,0.0,0.0,0.01
1700026234.5979245,26585,1700026234,570567680,sensor_wgs84,0.6465614438056946,0.23529116809368134,0.2880755364894867,0.666039764881134,2.1819253892296797e-06,0.0,0.0,0.0,2.3181574698348203e-06,0.0,0.0,0.0,6.114415505942359e-05,-0.028600702062249184,-0.02598448470234871,0.00225160107947886,0.01,0.0,0.0,0.0,0.01,0.0,0.0,0.0,0.01,-0.08478289842605591,-0.009075164794921875,0.03429603576660156,0.01,0.0,0.0,0.0,0.01,0.0,0.0,0.0,0.01
1700026234.597968,26586,1700026234,580581120,sensor_wgs84,0.6465182900428772,0.2351328730583191,0.288064569234848,0.6661422848701477,2.1819253892296797e-06,0.0,0.0,0.0,2.3181574698348203e-06,0.0,0.0,0.0,6.114415505942359e-05,-0.02734377048909664,-0.021404484286904335,0.01338837668299675,0.01,0.0,0.0,0.0,0.01,0.0,0.0,0.0,0.01,-0.09751075506210327,0.05751323699951172,0.004580140113830566,0.01,0.0,0.0,0.0,0.01,0.0,0.0,0.0,0.01
1700026234.6089253,26587,1700026234,590597888,sensor_wgs84,0.646571159362793,0.23467116057872772,0.28774863481521606,0.6663902401924133,2.1819253892296797e-06,0.0,0.0,0.0,2.3181574698348203e-06,0.0,0.0,0.0,6.114415505942359e-05,-0.02784455008804798,-0.016781412065029144,0.017086684703826904,0.01,0.0,0.0,0.0,0.01,0.0,0.0,0.0,0.01,-0.10861736536026001,0.1045684814453125,-0.04221022129058838,0.01,0.0,0.0,0.0,0.01,0.0,0.0,0.0,0.01
1700026234.6155124,26588,1700026234,600611072,sensor_wgs84,0.646508514881134,0.2345227301120758,0.2878178358078003,0.666473388671875,2.1819253892296797e-06,0.0,0.0,0.0,2.3181574698348203e-06,0.0,0.0,0.0,6.114415505942359e-05,-0.030103642493486404,-0.005277993157505989,0.022811535745859146,0.01,0.0,0.0,0.0,0.01,0.0,0.0,0.0,0.01,-0.02403360605239868,0.1495504379272461,-0.006262481212615967,0.01,0.0,0.0,0.0,0.01,0.0,0.0,0.0,0.01
1700026234.6260314,26589,1700026234,610625024,sensor_wgs84,0.6464529633522034,0.23439522087574005,0.2879360318183899,0.6665211319923401,2.1819253892296797e-06,0.0,0.0,0.0,2.3181574698348203e-06,0.0,0.0,0.0,6.114415505942359e-05,-0.022391224279999733,0.0030940664000809193,0.03206626698374748,0.01,0.0,0.0,0.0,0.01,0.0,0.0,0.0,0.01,-0.027826428413391113,0.18455982208251953,-0.013994395732879639,0.01,0.0,0.0,0.0,0.01,0.0,0.0,0.0,0.01
1700026234.6378965,26590,1700026234,620640512,sensor_wgs84,0.6464293003082275,0.23424115777015686,0.28810152411460876,0.666526734828949,2.1819253892296797e-06,0.0,0.0,0.0,2.3181574698348203e-06,0.0,0.0,0.0,6.114415505942359e-05,-0.013311443850398064,0.003158604260534048,0.05061613395810127,0.01,0.0,0.0,0.0,0.01,0.0,0.0,0.0,0.01,0.0004672408103942871,0.1536703109741211,-0.18097788095474243,0.01,0.0,0.0,0.0,0.01,0.0,0.0,0.0,0.01
1700026234.6449523,26591,1700026234,630652928,sensor_wgs84,0.6464629769325256,0.23406201601028442,0.28830966353416443,0.6664669513702393,2.1819253892296797e-06,0.0,0.0,0.0,2.3181574698348203e-06,0.0,0.0,0.0,6.114415505942359e-05,0.0020376895554363728,0.0077961767092347145,0.06455297023057938,0.01,0.0,0.0,0.0,0.01,0.0,0.0,0.0,0.01,0.005195319652557373,0.1456298828125,-0.19796162843704224,0.01,0.0,0.0,0.0,0.01,0.0,0.0,0.0,0.01
1700026234.6567285,26592,1700026234,640667136,sensor_wgs84,0.6465638279914856,0.23384541273117065,0.28853750228881836,0.6663466095924377,2.1819253892296797e-06,0.0,0.0,0.0,2.3181574698348203e-06,0.0,0.0,0.0,6.114415505942359e-05,0.008949129842221737,0.0007147624855861068,0.06966786086559296,0.01,0.0,0.0,0.0,0.01,0.0,0.0,0.0,0.01,0.01044774055480957,0.3000221252441406,-0.1286001205444336,0.01,0.0,0.0,0.0,0.01,0.0,0.0,0.0,0.01
1700026234.6696303,26593,1700026234,650684160,sensor_wgs84,0.6466739177703857,0.23365925252437592,0.28873348236083984,0.6662200689315796,2.1819253892296797e-06,0.0,0.0,0.0,2.3181574698348203e-06,0.0,0.0,0.0,6.114415505942359e-05,0.014100175350904465,-0.001835489645600319,0.05426877364516258,0.01,0.0,0.0,0.0,0.01,0.0,0.0,0.0,0.01,-0.02042245864868164,0.32428932189941406,-0.08750414848327637,0.01,0.0,0.0,0.0,0.01,0.0,0.0,0.0,0.01
1700026234.6807275,26594,1700026234,660701952,sensor_wgs84,0.6467799544334412,0.23350708186626434,0.2888713777065277,0.6661106944084167,2.1819253892296797e-06,0.0,0.0,0.0,2.3181574698348203e-06,0.0,0.0,0.0,6.114415505942359e-05,0.011368438601493835,-0.003932880237698555,0.04386153444647789,0.01,0.0,0.0,0.0,0.01,0.0,0.0,0.0,0.01,-0.01712733507156372,0.28292083740234375,-0.12793755531311035,0.01,0.0,0.0,0.0,0.01,0.0,0.0,0.0,0.01
1700026234.6905792,26595,1700026234,670716416,sensor_wgs84,0.6468729376792908,0.23338279128074646,0.28898125886917114,0.6660163998603821,2.1819253892296797e-06,0.0,0.0,0.0,2.3181574698348203e-06,0.0,0.0,0.0,6.114415505942359e-05,0.01525126863270998,-0.004072170704603195,0.0401017889380455,0.01,0.0,0.0,0.0,0.01,0.0,0.0,0.0,0.01,-0.0039637088775634766,0.2458333969116211,-0.11915111541748047,0.01,0.0,0.0,0.0,0.01,0.0,0.0,0.0,0.01
1700026234.7002423,26596,1700026234,680732416,sensor_wgs84,0.6469708681106567,0.2332569807767868,0.28906330466270447,0.6659297347068787,2.1819253892296797e-06,0.0,0.0,0.0,2.3181574698348203e-06,0.0,0.0,0.0,6.114415505942359e-05,0.012861443683505058,-0.01451264601200819,0.032013922929763794,0.01,0.0,0.0,0.0,0.01,0.0,0.0,0.0,0.01,0.0105210542678833,0.2439260482788086,-0.1106829047203064,0.01,0.0,0.0,0.0,0.01,0.0,0.0,0.0,0.01
1700026234.7104292,26597,1700026234,690750464,sensor_wgs84,0.6470966339111328,0.23314334452152252,0.289092093706131,0.6658347845077515,2.1819253892296797e-06,0.0,0.0,0.0,2.3181574698348203e-06,0.0,0.0,0.0,6.114415505942359e-05,0.025104587897658348,-0.01993216760456562,0.03500382602214813,0.01,0.0,0.0,0.0,0.01,0.0,0.0,0.0,0.01,-0.004394352436065674,0.2031536102294922,-0.13991224765777588,0.01,0.0,0.0,0.0,0.01,0.0,0.0,0.0,0.01
1700026234.7157824,26598,1700026234,700763648,sensor_wgs84,0.6472769975662231,0.23302222788333893,0.28909388184547424,0.6657010912895203,2.1819253892296797e-06,0.0,0.0,0.0,2.3181574698348203e-06,0.0,0.0,0.0,6.114415505942359e-05,0.038709405809640884,-0.022244853898882866,0.031041258946061134,0.01,0.0,0.0,0.0,0.01,0.0,0.0,0.0,0.01,0.001652538776397705,0.177215576171875,-0.15232956409454346,0.01,0.0,0.0,0.0,0.01,0.0,0.0,0.0,0.01
1700026234.7277536,26599,1700026234,710778880,sensor_wgs84,0.64750075340271,0.23289822041988373,0.2890603542327881,0.6655413508415222,2.1819253892296797e-06,0.0,0.0,0.0,2.3181574698348203e-06,0.0,0.0,0.0,6.114415505942359e-05,0.049445588141679764,-0.030199190601706505,0.0308710765093565,0.01,0.0,0.0,0.0,0.01,0.0,0.0,0.0,0.01,-0.00683671236038208,0.14922428131103516,-0.10803407430648804,0.01,0.0,0.0,0.0,0.01,0.0,0.0,0.0,0.01
1700026234.7407582,26600,1700026234,720796928,sensor_wgs84,0.647742509841919,0.2327926903963089,0.28900307416915894,0.6653679609298706,2.1819253892296797e-06,0.0,0.0,0.0,2.3181574698348203e-06,0.0,0.0,0.0,6.114415505942359e-05,0.04930664226412773,-0.023466406390070915,0.028960658237338066,0.01,0.0,0.0,0.0,0.01,0.0,0.0,0.0,0.01,-0.04228389263153076,0.07691192626953125,-0.0693894624710083,0.01,0.0,0.0,0.0,0.01,0.0,0.0,0.0,0.01
1700026234.7475657,26601,1700026234,730812160,sensor_wgs84,0.6479781270027161,0.23271238803863525,0.288943886756897,0.6651923656463623,2.174193316273332e-06,0.0,0.0,0.0,2.3061075364902797e-06,0.0,0.0,0.0,6.106761133426244e-05,0.05127182602882385,-0.020863113924860954,0.02140621468424797,0.01,0.0,0.0,0.0,0.01,0.0,0.0,0.0,0.01,-0.03853386640548706,0.050398826599121094,-0.028687894344329834,0.01,0.0,0.0,0.0,0.01,0.0,0.0,0.0,0.01
1700026234.7581778,26602,1700026234,740827904,sensor_wgs84,0.6481935977935791,0.23268245160579681,0.2888910174369812,0.6650158166885376,2.174193316273332e-06,0.0,0.0,0.0,2.3061075364902797e-06,0.0,0.0,0.0,6.106761133426244e-05,0.0527670755982399,-0.008397288620471954,0.01032281294465065,0.01,0.0,0.0,0.0,0.01,0.0,0.0,0.0,0.01,-0.035874247550964355,0.027672767639160156,-0.00881195068359375,0.01,0.0,0.0,0.0,0.01,0.0,0.0,0.0,0.01
1700026234.779783,26603,1700026234,750846208,sensor_wgs84,0.6484013199806213,0.2326911836862564,0.2888432741165161,0.6648309230804443,2.174193316273332e-06,0.0,0.0,0.0,2.3061075364902797e-06,0.0,0.0,0.0,6.106761133426244e-05,0.055736467242240906,-0.006884243339300156,0.014277953654527664,0.01,0.0,0.0,0.0,0.01,0.0,0.0,0.0,0.01,-0.06130814552307129,-0.05372810363769531,-0.05144643783569336,0.01,0.0,0.0,0.0,0.01,0.0,0.0,0.0,0.01
1700026234.779845,26604,1700026234,760860160,sensor_wgs84,0.6485990285873413,0.2327132374048233,0.2887836694717407,0.6646561622619629,2.174193316273332e-06,0.0,0.0,0.0,2.3061075364902797e-06,0.0,0.0,0.0,6.106761133426244e-05,0.05298786610364914,-0.00959943886846304,0.007400618400424719,0.01,0.0,0.0,0.0,0.01,0.0,0.0,0.0,0.01,-0.06589382886886597,-0.08180522918701172,-0.014011979103088379,0.01,0.0,0.0,0.0,0.01,0.0,0.0,0.0,0.01
1700026234.788261,26605,1700026234,770875904,sensor_wgs84,0.6487702131271362,0.2327686846256256,0.28871452808380127,0.6644997596740723,2.174193316273332e-06,0.0,0.0,0.0,2.3061075364902797e-06,0.0,0.0,0.0,6.106761133426244e-05,0.05192245543003082,-0.004394806455820799,-0.00699989590793848,0.01,0.0,0.0,0.0,0.01,0.0,0.0,0.0,0.01,-0.05844902992248535,-0.08574962615966797,0.051834672689437866,0.01,0.0,0.0,0.0,0.01,0.0,0.0,0.0,0.01
1700026234.8015256,26606,1700026234,780894720,sensor_wgs84,0.6489027142524719,0.23288241028785706,0.28861290216445923,0.6643746495246887,2.174193316273332e-06,0.0,0.0,0.0,2.3061075364902797e-06,0.0,0.0,0.0,6.106761133426244e-05,0.037431277334690094,0.005693424958735704,-0.025974128395318985,0.01,0.0,0.0,0.0,0.01,0.0,0.0,0.0,0.01,-0.07717692852020264,-0.12561702728271484,0.04400348663330078,0.01,0.0,0.0,0.0,0.01,0.0,0.0,0.0,0.01
1700026234.8056338,26607,1700026234,790907648,sensor_wgs84,0.6489626169204712,0.23304586112499237,0.2884715795516968,0.664320170879364,2.174193316273332e-06,0.0,0.0,0.0,2.3061075364902797e-06,0.0,0.0,0.0,6.106761133426244e-05,0.02185547538101673,-0.0012128310045227408,-0.04595005512237549,0.01,0.0,0.0,0.0,0.01,0.0,0.0,0.0,0.01,-0.08764064311981201,-0.19374656677246094,-0.009039521217346191,0.01,0.0,0.0,0.0,0.01,0.0,0.0,0.0,0.01
1700026234.824434,26608,1700026234,800924416,sensor_wgs84,0.6489761471748352,0.23320281505584717,0.28829264640808105,0.6643295884132385,2.174193316273332e-06,0.0,0.0,0.0,2.3061075364902797e-06,0.0,0.0,0.0,6.106761133426244e-05,0.010675923898816109,-0.008673352189362049,-0.04313605651259422,0.01,0.0,0.0,0.0,0.01,0.0,0.0,0.0,0.01,-0.050201237201690674,-0.2682228088378906,-0.09884017705917358,0.01,0.0,0.0,0.0,0.01,0.0,0.0,0.0,0.01
1700026234.8307097,26609,1700026234,810942464,sensor_wgs84,0.648963987827301,0.23330354690551758,0.2880968451499939,0.664391040802002,2.174193316273332e-06,0.0,0.0,0.0,2.3061075364902797e-06,0.0,0.0,0.0,6.106761133426244e-05,0.006970949005335569,-0.02487678825855255,-0.03972494229674339,0.01,0.0,0.0,0.0,0.01,0.0,0.0,0.0,0.01,-0.0635269284248352,-0.2972707748413086,-0.1731424629688263,0.01,0.0,0.0,0.0,0.01,0.0,0.0,0.0,0.01
1700026234.8372562,26610,1700026234,820957184,sensor_wgs84,0.6489354372024536,0.23332732915878296,0.2878846228122711,0.6645025610923767,2.174193316273332e-06,0.0,0.0,0.0,2.3061075364902797e-06,0.0,0.0,0.0,6.106761133426244e-05,-0.011808112263679504,-0.03166108578443527,-0.046231769025325775,0.01,0.0,0.0,0.0,0.01,0.0,0.0,0.0,0.01,-0.07785093784332275,-0.2013988494873047,-0.17034226655960083,0.01,0.0,0.0,0.0,0.01,0.0,0.0,0.0,0.01
1700026234.8478947,26611,1700026234,830972416,sensor_wgs84,0.648879885673523,0.23335762321949005,0.2876336872577667,0.6646548509597778,2.174193316273332e-06,0.0,0.0,0.0,2.3061075364902797e-06,0.0,0.0,0.0,6.106761133426244e-05,-0.019756777212023735,-0.02831326238811016,-0.05430269613862038,0.01,0.0,0.0,0.0,0.01,0.0,0.0,0.0,0.01,-0.09086793661117554,-0.12212944030761719,-0.0563054084777832,0.01,0.0,0.0,0.0,0.01,0.0,0.0,0.0,0.01
1700026234.8597443,26612,1700026234,840989184,sensor_wgs84,0.6488754749298096,0.23307260870933533,0.28705909848213196,0.6650074124336243,2.174193316273332e-06,0.0,0.0,0.0,2.3061075364902797e-06,0.0,0.0,0.0,6.106761133426244e-05,-0.026711255311965942,-0.020820865407586098,-0.0642748475074768,0.01,0.0,0.0,0.0,0.01,0.0,0.0,0.0,0.01,-0.10814225673675537,-0.10474300384521484,0.039636313915252686,0.01,0.0,0.0,0.0,0.01,0.0,0.0,0.0,0.01
1700026234.872619,26613,1700026234,851002880,sensor_wgs84,0.6487405896186829,0.2332039326429367,0.2868030369281769,0.6652034521102905,2.174193316273332e-06,0.0,0.0,0.0,2.3061075364902797e-06,0.0,0.0,0.0,6.106761133426244e-05,-0.027703050523996353,-0.003360735485330224,-0.07297651469707489,0.01,0.0,0.0,0.0,0.01,0.0,0.0,0.0,0.01,-0.11570441722869873,-0.18023395538330078,0.04988202452659607,0.01,0.0,0.0,0.0,0.01,0.0,0.0,0.0,0.01
1700026234.8783677,26614,1700026234,861018368,sensor_wgs84,0.6485748291015625,0.23339137434959412,0.28661784529685974,0.6653792262077332,2.174193316273332e-06,0.0,0.0,0.0,2.3061075364902797e-06,0.0,0.0,0.0,6.106761133426244e-05,-0.03106965310871601,0.013570678420364857,-0.06222293898463249,0.01,0.0,0.0,0.0,0.01,0.0,0.0,0.0,0.01,-0.10085403919219971,-0.24530696868896484,0.07581150531768799,0.01,0.0,0.0,0.0,0.01,0.0,0.0,0.0,0.01
1700026234.8900356,26615,1700026234,871035904,sensor_wgs84,0.6483716368675232,0.2336009442806244,0.28653115034103394,0.6655409336090088,2.174193316273332e-06,0.0,0.0,0.0,2.3061075364902797e-06,0.0,0.0,0.0,6.106761133426244e-05,-0.025678548961877823,0.030067013576626778,-0.04601952061057091,0.01,0.0,0.0,0.0,0.01,0.0,0.0,0.0,0.01,-0.034159183502197266,-0.22011947631835938,0.12340593338012695,0.01,0.0,0.0,0.0,0.01,0.0,0.0,0.0,0.01
1700026234.8967865,26616,1700026234,881049856,sensor_wgs84,0.6481795907020569,0.23381392657756805,0.2865714430809021,0.6656359434127808,2.174193316273332e-06,0.0,0.0,0.0,2.3061075364902797e-06,0.0,0.0,0.0,6.106761133426244e-05,-0.02836388163268566,0.04402259364724159,-0.02480253204703331,0.01,0.0,0.0,0.0,0.01,0.0,0.0,0.0,0.01,0.03653448820114136,-0.19832611083984375,0.06754156947135925,0.01,0.0,0.0,0.0,0.01,0.0,0.0,0.0,0.01
1700026234.908954,26617,1700026234,891066112,sensor_wgs84,0.6480236649513245,0.233964741230011,0.28671008348464966,0.6656750440597534,2.174193316273332e-06,0.0,0.0,0.0,2.3061075364902797e-06,0.0,0.0,0.0,6.106761133426244e-05,-0.025365816429257393,0.045607682317495346,-0.0025504599325358868,0.01,0.0,0.0,0.0,0.01,0.0,0.0,0.0,0.01,0.0822908878326416,-0.13418960571289062,-0.061413198709487915,0.01,0.0,0.0,0.0,0.01,0.0,0.0,0.0,0.01
1700026234.9211612,26618,1700026234,901083904,sensor_wgs84,0.6478846669197083,0.2340390980243683,0.2868858277797699,0.6657084822654724,2.174193316273332e-06,0.0,0.0,0.0,2.3061075364902797e-06,0.0,0.0,0.0,6.106761133426244e-05,-0.026547502726316452,0.03245764225721359,0.012127420864999294,0.01,0.0,0.0,0.0,0.01,0.0,0.0,0.0,0.01,0.13870686292648315,-0.004268646240234375,-0.09858524799346924,0.01,0.0,0.0,0.0,0.01,0.0,0.0,0.0,0.01
1700026234.9268227,26619,1700026234,911097600,sensor_wgs84,0.647767186164856,0.2340160459280014,0.2870519161224365,0.665759265422821,2.174193316273332e-06,0.0,0.0,0.0,2.3061075364902797e-06,0.0,0.0,0.0,6.106761133426244e-05,-0.026360170915722847,0.014251305721700191,0.022505994886159897,0.01,0.0,0.0,0.0,0.01,0.0,0.0,0.0,0.01,0.1779816746711731,0.0861806869506836,-0.03958249092102051,0.01,0.0,0.0,0.0,0.01,0.0,0.0,0.0,0.01
1700026234.9375856,26620,1700026234,921112576,sensor_wgs84,0.6476860642433167,0.23392538726329803,0.2871679961681366,0.6658200025558472,2.174193316273332e-06,0.0,0.0,0.0,2.3061075364902797e-06,0.0,0.0,0.0,6.106761133426244e-05,-0.02531926892697811,-0.0006672037998214364,0.02167174220085144,0.01,0.0,0.0,0.0,0.01,0.0,0.0,0.0,0.01,0.17929551005363464,0.09304428100585938,-0.03959834575653076,0.01,0.0,0.0,0.0,0.01,0.0,0.0,0.0,0.01
1700026234.9508035,26621,1700026234,931130368,sensor_wgs84,0.6476474404335022,0.23374973237514496,0.2872416079044342,0.6658875346183777,2.1636794196004e-06,0.0,0.0,0.0,2.2943178792635225e-06,0.0,0.0,0.0,6.100728523885193e-05,-0.03011809103190899,-0.024636955931782722,0.033664606511592865,0.01,0.0,0.0,0.0,0.01,0.0,0.0,0.0,0.01,0.14901667833328247,0.034450531005859375,-0.04133903980255127,0.01,0.0,0.0,0.0,0.01,0.0,0.0,0.0,0.01
1700026234.958344,26622,1700026234,941144832,sensor_wgs84,0.6476395726203918,0.23348671197891235,0.28727883100509644,0.6659713983535767,2.1636794196004e-06,0.0,0.0,0.0,2.2943178792635225e-06,0.0,0.0,0.0,6.100728523885193e-05,-0.02922401763498783,-0.03866313025355339,0.035221703350543976,0.01,0.0,0.0,0.0,0.01,0.0,0.0,0.0,0.01,0.07999438047409058,0.07219791412353516,-0.006529808044433594,0.01,0.0,0.0,0.0,0.01,0.0,0.0,0.0,0.01
1700026234.9680076,26623,1700026234,951160064,sensor_wgs84,0.6476494073867798,0.23314914107322693,0.2872921824455261,0.6660743355751038,2.1636794196004e-06,0.0,0.0,0.0,2.2943178792635225e-06,0.0,0.0,0.0,6.100728523885193e-05,-0.033331792801618576,-0.05210592597723007,0.03774959594011307,0.01,0.0,0.0,0.0,0.01,0.0,0.0,0.0,0.01,0.022701919078826904,0.12046051025390625,-0.01559668779373169,0.01,0.0,0.0,0.0,0.01,0.0,0.0,0.0,0.01
1700026234.9801996,26624,1700026234,961177344,sensor_wgs84,0.6476719379425049,0.23276804387569427,0.2872691750526428,0.6661956310272217,2.1636794196004e-06,0.0,0.0,0.0,2.2943178792635225e-06,0.0,0.0,0.0,6.100728523885193e-05,-0.03156106546521187,-0.05712074786424637,0.04482375457882881,0.01,0.0,0.0,0.0,0.01,0.0,0.0,0.0,0.01,-0.05704236030578613,0.12798213958740234,0.014470338821411133,0.01,0.0,0.0,0.0,0.01,0.0,0.0,0.0,0.01
1700026234.9869845,26625,1700026234,971191296,sensor_wgs84,0.6477129459381104,0.23238354921340942,0.28724172711372375,0.6663018465042114,2.1636794196004e-06,0.0,0.0,0.0,2.2943178792635225e-06,0.0,0.0,0.0,6.100728523885193e-05,-0.021234659478068352,-0.06550712883472443,0.03461143746972084,0.01,0.0,0.0,0.0,0.01,0.0,0.0,0.0,0.01,-0.13180041313171387,0.1980876922607422,0.09911829233169556,0.01,0.0,0.0,0.0,0.01,0.0,0.0,0.0,0.01
1700026235.00674,26626,1700026234,981206784,sensor_wgs84,0.64778071641922,0.2320486456155777,0.2871847450733185,0.6663771867752075,2.1636794196004e-06,0.0,0.0,0.0,2.2943178792635225e-06,0.0,0.0,0.0,6.100728523885193e-05,-0.014886504970490932,-0.05462411046028137,0.025627121329307556,0.01,0.0,0.0,0.0,0.01,0.0,0.0,0.0,0.01,-0.18109595775604248,0.23314476013183594,0.12152063846588135,0.01,0.0,0.0,0.0,0.01,0.0,0.0,0.0,0.01
1700026235.0116072,26627,1700026234,991225600,sensor_wgs84,0.647843062877655,0.23181790113449097,0.2871086299419403,0.6664296388626099,2.1636794196004e-06,0.0,0.0,0.0,2.2943178792635225e-06,0.0,0.0,0.0,6.100728523885193e-05,-0.0049971649423241615,-0.04275599867105484,0.012945093214511871,0.01,0.0,0.0,0.0,0.01,0.0,0.0,0.0,0.01,-0.22325104475021362,0.16991424560546875,0.09029105305671692,0.01,0.0,0.0,0.0,0.01,0.0,0.0,0.0,0.01
1700026235.0167797,26628,1700026235,1238784,sensor_wgs84,0.6478747725486755,0.23168215155601501,0.28704801201820374,0.6664722561836243,2.1636794196004e-06,0.0,0.0,0.0,2.2943178792635225e-06,0.0,0.0,0.0,6.100728523885193e-05,-0.005069082602858543,-0.020883863791823387,0.0039369226433336735,0.01,0.0,0.0,0.0,0.01,0.0,0.0,0.0,0.01,-0.2570981979370117,0.0821065902709961,0.024678736925125122,0.01,0.0,0.0,0.0,0.01,0.0,0.0,0.0,0.01
1700026235.0287025,26629,1700026235,11254784,sensor_wgs84,0.6478685736656189,0.23163367807865143,0.2870115339756012,0.666510820388794,2.1636794196004e-06,0.0,0.0,0.0,2.2943178792635225e-06,0.0,0.0,0.0,6.100728523885193e-05,-0.002602119231596589,-0.006460041739046574,-0.003109833924099803,0.01,0.0,0.0,0.0,0.01,0.0,0.0,0.0,0.01,-0.238375723361969,0.04597663879394531,-0.011358499526977539,0.01,0.0,0.0,0.0,0.01,0.0,0.0,0.0,0.01
1700026235.0419767,26630,1700026235,21272320,sensor_wgs84,0.6478428840637207,0.23166075348854065,0.28701114654541016,0.6665264368057251,2.1636794196004e-06,0.0,0.0,0.0,2.2943178792635225e-06,0.0,0.0,0.0,6.100728523885193e-05,-0.0012793508358299732,0.006856888998299837,-0.007807548623532057,0.01,0.0,0.0,0.0,0.01,0.0,0.0,0.0,0.01,-0.1901138424873352,0.07030391693115234,-0.11383795738220215,0.01,0.0,0.0,0.0,0.01,0.0,0.0,0.0,0.01
1700026235.0543122,26631,1700026235,31286784,sensor_wgs84,0.6478080749511719,0.23174655437469482,0.2870410978794098,0.6665176153182983,2.1636794196004e-06,0.0,0.0,0.0,2.2943178792635225e-06,0.0,0.0,0.0,6.100728523885193e-05,0.004541226662695408,0.020046938210725784,-0.007288126274943352,0.01,0.0,0.0,0.0,0.01,0.0,0.0,0.0,0.01,-0.17515140771865845,0.09311485290527344,-0.20420420169830322,0.01,0.0,0.0,0.0,0.01,0.0,0.0,0.0,0.01
1700026235.0581467,26632,1700026235,41301760,sensor_wgs84,0.6477940082550049,0.2318713366985321,0.2870420515537262,0.666487455368042,2.1636794196004e-06,0.0,0.0,0.0,2.2943178792635225e-06,0.0,0.0,0.0,6.100728523885193e-05,0.015334795229136944,0.02271145209670067,-0.022241342812776566,0.01,0.0,0.0,0.0,0.01,0.0,0.0,0.0,0.01,-0.15676283836364746,0.1394033432006836,-0.23350048065185547,0.01,0.0,0.0,0.0,0.01,0.0,0.0,0.0,0.01
1700026235.0697,26633,1700026235,51318528,sensor_wgs84,0.647783100605011,0.2320602536201477,0.28698697686195374,0.6664560437202454,2.1636794196004e-06,0.0,0.0,0.0,2.2943178792635225e-06,0.0,0.0,0.0,6.100728523885193e-05,0.019055182114243507,0.025598786771297455,-0.034472156316041946,0.01,0.0,0.0,0.0,0.01,0.0,0.0,0.0,0.01,-0.1461498737335205,0.09989643096923828,-0.15622639656066895,0.01,0.0,0.0,0.0,0.01,0.0,0.0,0.0,0.01
1700026235.076902,26634,1700026235,61332224,sensor_wgs84,0.6477540135383606,0.23232252895832062,0.2868915796279907,0.6664340496063232,2.1636794196004e-06,0.0,0.0,0.0,2.2943178792635225e-06,0.0,0.0,0.0,6.100728523885193e-05,0.019914032891392708,0.024277763441205025,-0.055961910635232925,0.01,0.0,0.0,0.0,0.01,0.0,0.0,0.0,0.01,-0.10973936319351196,0.06301689147949219,-0.128537118434906,0.01,0.0,0.0,0.0,0.01,0.0,0.0,0.0,0.01
1700026235.0882323,26635,1700026235,71347712,sensor_wgs84,0.6476796865463257,0.23263928294181824,0.28677013516426086,0.6664479374885559,2.1636794196004e-06,0.0,0.0,0.0,2.2943178792635225e-06,0.0,0.0,0.0,6.100728523885193e-05,0.011833496391773224,0.032119717448949814,-0.06646044552326202,0.01,0.0,0.0,0.0,0.01,0.0,0.0,0.0,0.01,-0.09612929821014404,-0.03576850891113281,-0.0631985068321228,0.01,0.0,0.0,0.0,0.01,0.0,0.0,0.0,0.01
1700026235.1151786,26636,1700026235,81365248,sensor_wgs84,0.6475768089294434,0.2329777181148529,0.28666597604751587,0.6664746403694153,2.1636794196004e-06,0.0,0.0,0.0,2.2943178792635225e-06,0.0,0.0,0.0,6.100728523885193e-05,0.0028281083796173334,0.03941851481795311,-0.06623533368110657,0.01,0.0,0.0,0.0,0.01,0.0,0.0,0.0,0.01,-0.07143819332122803,-0.10877704620361328,-0.04277580976486206,0.01,0.0,0.0,0.0,0.01,0.0,0.0,0.0,0.01
1700026235.1152747,26637,1700026235,91381248,sensor_wgs84,0.6475707292556763,0.2329547107219696,0.286285400390625,0.6666520833969116,2.1636794196004e-06,0.0,0.0,0.0,2.2943178792635225e-06,0.0,0.0,0.0,6.100728523885193e-05,-0.0035486265551298857,0.034203726798295975,-0.05449511855840683,0.01,0.0,0.0,0.0,0.01,0.0,0.0,0.0,0.01,-0.016637861728668213,-0.10238361358642578,-0.07679998874664307,0.01,0.0,0.0,0.0,0.01,0.0,0.0,0.0,0.01
1700026235.1187618,26638,1700026235,101396736,sensor_wgs84,0.6474428176879883,0.23322327435016632,0.28624629974365234,0.6666991710662842,2.1636794196004e-06,0.0,0.0,0.0,2.2943178792635225e-06,0.0,0.0,0.0,6.100728523885193e-05,-0.009046880528330803,0.03722261264920235,-0.048479463905096054,0.01,0.0,0.0,0.0,0.01,0.0,0.0,0.0,0.01,0.02187216281890869,-0.0567474365234375,-0.040033817291259766,0.01,0.0,0.0,0.0,0.01,0.0,0.0,0.0,0.01
1700026235.1314762,26639,1700026235,111414272,sensor_wgs84,0.6472886204719543,0.2334665060043335,0.28622859716415405,0.6667713522911072,2.1636794196004e-06,0.0,0.0,0.0,2.2943178792635225e-06,0.0,0.0,0.0,6.100728523885193e-05,-0.0201418437063694,0.032071374356746674,-0.049808405339717865,0.01,0.0,0.0,0.0,0.01,0.0,0.0,0.0,0.01,0.06364989280700684,0.02363109588623047,-0.03902626037597656,0.01,0.0,0.0,0.0,0.01,0.0,0.0,0.0,0.01
1700026235.1369429,26640,1700026235,121426944,sensor_wgs84,0.6471222043037415,0.23370149731636047,0.2862219214439392,0.6668534278869629,2.15404829111665e-06,0.0,0.0,0.0,2.2827139180459804e-06,0.0,0.0,0.0,6.09434845276792e-05,-0.02174525335431099,0.03657077997922897,-0.03884689137339592,0.01,0.0,0.0,0.0,0.01,0.0,0.0,0.0,0.01,0.09088629484176636,0.00177764892578125,-0.05635058879852295,0.01,0.0,0.0,0.0,0.01,0.0,0.0,0.0,0.01
1700026235.1480389,26641,1700026235,131441664,sensor_wgs84,0.6469675302505493,0.23390667140483856,0.2862425744533539,0.6669226884841919,2.15404829111665e-06,0.0,0.0,0.0,2.2827139180459804e-06,0.0,0.0,0.0,6.09434845276792e-05,-0.017129994928836823,0.03734734654426575,-0.03137492761015892,0.01,0.0,0.0,0.0,0.01,0.0,0.0,0.0,0.01,0.11903557181358337,-0.0342254638671875,-0.08960145711898804,0.01,0.0,0.0,0.0,0.01,0.0,0.0,0.0,0.01
1700026235.1662197,26642,1700026235,141460224,sensor_wgs84,0.6468513011932373,0.23406894505023956,0.28631871938705444,0.6669458150863647,2.15404829111665e-06,0.0,0.0,0.0,2.2827139180459804e-06,0.0,0.0,0.0,6.09434845276792e-05,-0.007018064148724079,0.03684692829847336,-0.007305968087166548,0.01,0.0,0.0,0.0,0.01,0.0,0.0,0.0,0.01,0.13043436408042908,-0.007334709167480469,-0.11259108781814575,0.01,0.0,0.0,0.0,0.01,0.0,0.0,0.0,0.01
1700026235.167367,26643,1700026235,151473664,sensor_wgs84,0.6467909812927246,0.23417909443378448,0.28642603754997253,0.6669195890426636,2.15404829111665e-06,0.0,0.0,0.0,2.2827139180459804e-06,0.0,0.0,0.0,6.09434845276792e-05,0.005327011924237013,0.03402657434344292,0.0001906118413899094,0.01,0.0,0.0,0.0,0.01,0.0,0.0,0.0,0.01,0.14492374658584595,0.08925628662109375,-0.13194257020950317,0.01,0.0,0.0,0.0,0.01,0.0,0.0,0.0,0.01
1700026235.179029,26644,1700026235,161489664,sensor_wgs84,0.6467695832252502,0.23426368832588196,0.28652268648147583,0.6668691635131836,2.15404829111665e-06,0.0,0.0,0.0,2.2827139180459804e-06,0.0,0.0,0.0,6.09434845276792e-05,0.0038960669189691544,0.02253912203013897,-0.0005139494314789772,0.01,0.0,0.0,0.0,0.01,0.0,0.0,0.0,0.01,0.14832982420921326,0.14010143280029297,-0.17686480283737183,0.01,0.0,0.0,0.0,0.01,0.0,0.0,0.0,0.01
1700026235.189948,26645,1700026235,171506432,sensor_wgs84,0.6467735171318054,0.23432491719722748,0.28655877709388733,0.6668282747268677,2.15404829111665e-06,0.0,0.0,0.0,2.2827139180459804e-06,0.0,0.0,0.0,6.09434845276792e-05,0.00815911591053009,0.008073938079178333,-0.006567302159965038,0.01,0.0,0.0,0.0,0.01,0.0,0.0,0.0,0.01,0.13271725177764893,0.17647361755371094,-0.17213916778564453,0.01,0.0,0.0,0.0,0.01,0.0,0.0,0.0,0.01
1700026235.2112565,26646,1700026235,181525248,sensor_wgs84,0.6468177437782288,0.23435290157794952,0.2865146994590759,0.66679447889328,2.15404829111665e-06,0.0,0.0,0.0,2.2827139180459804e-06,0.0,0.0,0.0,6.09434845276792e-05,0.01576300710439682,-0.01074153371155262,-0.012954119592905045,0.01,0.0,0.0,0.0,0.01,0.0,0.0,0.0,0.01,0.10529285669326782,0.12500953674316406,-0.09394580125808716,0.01,0.0,0.0,0.0,0.01,0.0,0.0,0.0,0.01
1700026235.2118366,26647,1700026235,191540736,sensor_wgs84,0.646886944770813,0.23436352610588074,0.28641510009765625,0.6667664647102356,2.15404829111665e-06,0.0,0.0,0.0,2.2827139180459804e-06,0.0,0.0,0.0,6.09434845276792e-05,0.018698401749134064,-0.016042713075876236,-0.011345317587256432,0.01,0.0,0.0,0.0,0.01,0.0,0.0,0.0,0.01,0.07738769054412842,0.0671224594116211,-0.05132019519805908,0.01,0.0,0.0,0.0,0.01,0.0,0.0,0.0,0.01
1700026235.2221673,26648,1700026235,201557760,sensor_wgs84,0.6469700336456299,0.23434793949127197,0.28629815578460693,0.6667414903640747,2.15404829111665e-06,0.0,0.0,0.0,2.2827139180459804e-06,0.0,0.0,0.0,6.09434845276792e-05,0.015082369558513165,-0.019557850435376167,-0.00609758123755455,0.01,0.0,0.0,0.0,0.01,0.0,0.0,0.0,0.01,0.06042647361755371,0.017145156860351562,-0.025034427642822266,0.01,0.0,0.0,0.0,0.01,0.0,0.0,0.0,0.01
1700026235.232391,26649,1700026235,211577088,sensor_wgs84,0.6470505595207214,0.23431527614593506,0.28618529438972473,0.6667232513427734,2.15404829111665e-06,0.0,0.0,0.0,2.2827139180459804e-06,0.0,0.0,0.0,6.09434845276792e-05,0.01844477280974388,-0.026461752131581306,-0.008806179277598858,0.01,0.0,0.0,0.0,0.01,0.0,0.0,0.0,0.01,0.02643144130706787,0.016948699951171875,-0.03749042749404907,0.01,0.0,0.0,0.0,0.01,0.0,0.0,0.0,0.01
1700026235.237797,26650,1700026235,221591808,sensor_wgs84,0.6471352577209473,0.23425890505313873,0.28605687618255615,0.6667160391807556,2.15404829111665e-06,0.0,0.0,0.0,2.2827139180459804e-06,0.0,0.0,0.0,6.09434845276792e-05,0.015422559343278408,-0.029938243329524994,-0.002832712372764945,0.01,0.0,0.0,0.0,0.01,0.0,0.0,0.0,0.01,-0.0027187466621398926,0.01986408233642578,-0.04846763610839844,0.01,0.0,0.0,0.0,0.01,0.0,0.0,0.0,0.01
1700026235.2532992,26651,1700026235,231608576,sensor_wgs84,0.6472346186637878,0.2341948300600052,0.2859194576740265,0.666701078414917,2.15404829111665e-06,0.0,0.0,0.0,2.2827139180459804e-06,0.0,0.0,0.0,6.09434845276792e-05,0.01729479804635048,-0.03155700862407684,-0.0035018306225538254,0.01,0.0,0.0,0.0,0.01,0.0,0.0,0.0,0.01,-0.0575527548789978,0.00719451904296875,0.0019274353981018066,0.01,0.0,0.0,0.0,0.01,0.0,0.0,0.0,0.01
1700026235.2623208,26652,1700026235,241627904,sensor_wgs84,0.6473293900489807,0.23413681983947754,0.285780131816864,0.6666890978813171,2.15404829111665e-06,0.0,0.0,0.0,2.2827139180459804e-06,0.0,0.0,0.0,6.09434845276792e-05,0.017360996454954147,-0.03061426430940628,-0.0037757980171591043,0.01,0.0,0.0,0.0,0.01,0.0,0.0,0.0,0.01,-0.09442406892776489,0.033092498779296875,0.04708421230316162,0.01,0.0,0.0,0.0,0.01,0.0,0.0,0.0,0.01
1700026235.2681656,26653,1700026235,251642880,sensor_wgs84,0.6474205851554871,0.23411738872528076,0.28561723232269287,0.6666771769523621,2.15404829111665e-06,0.0,0.0,0.0,2.2827139180459804e-06,0.0,0.0,0.0,6.09434845276792e-05,0.015703409910202026,-0.02158200927078724,-0.020662110298871994,0.01,0.0,0.0,0.0,0.01,0.0,0.0,0.0,0.01,-0.1198464035987854,0.06804084777832031,0.04474321007728577,0.01,0.0,0.0,0.0,0.01,0.0,0.0,0.0,0.01
1700026235.2801387,26654,1700026235,261659392,sensor_wgs84,0.6474652290344238,0.2341783344745636,0.28542065620422363,0.6666966676712036,2.15404829111665e-06,0.0,0.0,0.0,2.2827139180459804e-06,0.0,0.0,0.0,6.09434845276792e-05,0.013120624236762524,-0.01740504801273346,-0.048349376767873764,0.01,0.0,0.0,0.0,0.01,0.0,0.0,0.0,0.01,-0.1244240403175354,0.10593318939208984,0.0918978750705719,0.01,0.0,0.0,0.0,0.01,0.0,0.0,0.0,0.01
1700026235.2919123,26655,1700026235,271677952,sensor_wgs84,0.6474671363830566,0.23432514071464539,0.2851639688014984,0.6667531132698059,2.15404829111665e-06,0.0,0.0,0.0,2.2827139180459804e-06,0.0,0.0,0.0,6.09434845276792e-05,0.015479900874197483,-0.011206633411347866,-0.06817734241485596,0.01,0.0,0.0,0.0,0.01,0.0,0.0,0.0,0.01,-0.10476028919219971,0.08716869354248047,0.14976701140403748,0.01,0.0,0.0,0.0,0.01,0.0,0.0,0.0,0.01
1700026235.307885,26656,1700026235,281693184,sensor_wgs84,0.6474412679672241,0.23456630110740662,0.2848578691482544,0.666824221611023,2.15404829111665e-06,0.0,0.0,0.0,2.2827139180459804e-06,0.0,0.0,0.0,6.09434845276792e-05,0.019258644431829453,-0.0009465913171879947,-0.08165917545557022,0.01,0.0,0.0,0.0,0.01,0.0,0.0,0.0,0.01,-0.08234584331512451,0.022508621215820312,0.17818030714988708,0.01,0.0,0.0,0.0,0.01,0.0,0.0,0.0,0.01
1700026235.3097484,26657,1700026235,291710208,sensor_wgs84,0.6474160552024841,0.2348741888999939,0.2845504879951477,0.6668716073036194,2.15404829111665e-06,0.0,0.0,0.0,2.2827139180459804e-06,0.0,0.0,0.0,6.09434845276792e-05,0.02604912966489792,0.008158659562468529,-0.08644195646047592,0.01,0.0,0.0,0.0,0.01,0.0,0.0,0.0,0.01,-0.08400547504425049,-0.10866451263427734,0.2066185176372528,0.01,0.0,0.0,0.0,0.01,0.0,0.0,0.0,0.01
1700026235.3235972,26658,1700026235,301730560,sensor_wgs84,0.6473956108093262,0.2352265864610672,0.2842848598957062,0.6668805480003357,2.15404829111665e-06,0.0,0.0,0.0,2.2827139180459804e-06,0.0,0.0,0.0,6.09434845276792e-05,0.028564702719449997,0.01968846656382084,-0.07736357301473618,0.01,0.0,0.0,0.0,0.01,0.0,0.0,0.0,0.01,-0.09347003698348999,-0.15736961364746094,0.1620005965232849,0.01,0.0,0.0,0.0,0.01,0.0,0.0,0.0,0.01
1700026235.327793,26659,1700026235,311745024,sensor_wgs84,0.6473509669303894,0.2355930656194687,0.28409305214881897,0.6668761968612671,2.15404829111665e-06,0.0,0.0,0.0,2.2827139180459804e-06,0.0,0.0,0.0,6.09434845276792e-05,0.019855286926031113,0.028190622106194496,-0.0710284560918808,0.01,0.0,0.0,0.0,0.01,0.0,0.0,0.0,0.01,-0.07730168104171753,-0.18683815002441406,0.05034291744232178,0.01,0.0,0.0,0.0,0.01,0.0,0.0,0.0,0.01
1700026235.3409092,26660,1700026235,321762304,sensor_wgs84,0.6472645401954651,0.23595818877220154,0.28395259380340576,0.6668907403945923,2.1658564342540853e-06,0.0,0.0,0.0,2.296315829633774e-06,0.0,0.0,0.0,6.098295514435359e-05,0.010785425081849098,0.03564593195915222,-0.07133405655622482,0.01,0.0,0.0,0.0,0.01,0.0,0.0,0.0,0.01,-0.03443121910095215,-0.11638832092285156,0.041171759366989136,0.01,0.0,0.0,0.0,0.01,0.0,0.0,0.0,0.01
1700026235.3554962,26661,1700026235,331781120,sensor_wgs84,0.6471344828605652,0.23633615672588348,0.2838532626628876,0.6669254302978516,2.1658564342540853e-06,0.0,0.0,0.0,2.296315829633774e-06,0.0,0.0,0.0,6.098295514435359e-05,-0.0030754092149436474,0.04739012196660042,-0.07322473078966141,0.01,0.0,0.0,0.0,0.01,0.0,0.0,0.0,0.01,0.029146969318389893,0.019222259521484375,-0.04267647862434387,0.01,0.0,0.0,0.0,0.01,0.0,0.0,0.0,0.01
1700026235.3586771,26662,1700026235,341795584,sensor_wgs84,0.6470726132392883,0.23642459511756897,0.28341051936149597,0.6671424508094788,2.1658564342540853e-06,0.0,0.0,0.0,2.296315829633774e-06,0.0,0.0,0.0,6.098295514435359e-05,-0.003999515436589718,0.03556745499372482,-0.0814499631524086,0.01,0.0,0.0,0.0,0.01,0.0,0.0,0.0,0.01,0.045389145612716675,-0.010775566101074219,-0.18048876523971558,0.01,0.0,0.0,0.0,0.01,0.0,0.0,0.0,0.01
1700026235.3707497,26663,1700026235,351813376,sensor_wgs84,0.6469050049781799,0.2367582619190216,0.28328391909599304,0.6672404408454895,2.1658564342540853e-06,0.0,0.0,0.0,2.296315829633774e-06,0.0,0.0,0.0,6.098295514435359e-05,-0.014116611331701279,0.027967268601059914,-0.06600256264209747,0.01,0.0,0.0,0.0,0.01,0.0,0.0,0.0,0.01,0.07019636034965515,-0.04192066192626953,-0.2743968069553375,0.01,0.0,0.0,0.0,0.01,0.0,0.0,0.0,0.01
1700026235.3819385,26664,1700026235,361831936,sensor_wgs84,0.6467708945274353,0.2369878888130188,0.28316035866737366,0.6673412919044495,2.1658564342540853e-06,0.0,0.0,0.0,2.296315829633774e-06,0.0,0.0,0.0,6.098295514435359e-05,-0.011120381765067577,0.012016985565423965,-0.04734918475151062,0.01,0.0,0.0,0.0,0.01,0.0,0.0,0.0,0.01,0.07605129480361938,-0.027899742126464844,-0.2570854425430298,0.01,0.0,0.0,0.0,0.01,0.0,0.0,0.0,0.01
1700026235.3884974,26665,1700026235,371846912,sensor_wgs84,0.6466772556304932,0.23710410296916962,0.28307124972343445,0.6674285531044006,2.1658564342540853e-06,0.0,0.0,0.0,2.296315829633774e-06,0.0,0.0,0.0,6.098295514435359e-05,-0.011983574368059635,0.005023263394832611,-0.021206246688961983,0.01,0.0,0.0,0.0,0.01,0.0,0.0,0.0,0.01,0.055488407611846924,-0.05325508117675781,-0.21265316009521484,0.01,0.0,0.0,0.0,0.01,0.0,0.0,0.0,0.01
1700026235.4005811,26666,1700026235,381863936,sensor_wgs84,0.6466182470321655,0.23711974918842316,0.28306788206100464,0.6674816608428955,2.1658564342540853e-06,0.0,0.0,0.0,2.296315829633774e-06,0.0,0.0,0.0,6.098295514435359e-05,-0.014267736114561558,0.0017528384923934937,0.0077157276682555676,0.01,0.0,0.0,0.0,0.01,0.0,0.0,0.0,0.01,0.004976183176040649,-0.0380859375,-0.17106348276138306,0.01,0.0,0.0,0.0,0.01,0.0,0.0,0.0,0.01
1700026235.417883,26667,1700026235,391884032,sensor_wgs84,0.6466039419174194,0.23705227673053741,0.28316742181777954,0.6674772500991821,2.1658564342540853e-06,0.0,0.0,0.0,2.296315829633774e-06,0.0,0.0,0.0,6.098295514435359e-05,-0.008257200941443443,0.01166484970599413,0.0348074696958065,0.01,0.0,0.0,0.0,0.01,0.0,0.0,0.0,0.01,-0.015857666730880737,0.03055286407470703,-0.10003650188446045,0.01,0.0,0.0,0.0,0.01,0.0,0.0,0.0,0.01
1700026235.4179077,26668,1700026235,401897984,sensor_wgs84,0.6466023921966553,0.2369735687971115,0.2833693027496338,0.6674209833145142,2.1658564342540853e-06,0.0,0.0,0.0,2.296315829633774e-06,0.0,0.0,0.0,6.098295514435359e-05,-0.0073631564155220985,0.02618962898850441,0.04660560563206673,0.01,0.0,0.0,0.0,0.01,0.0,0.0,0.0,0.01,-0.036234647035598755,0.13454151153564453,-0.07725781202316284,0.01,0.0,0.0,0.0,0.01,0.0,0.0,0.0,0.01
1700026235.430035,26669,1700026235,411915008,sensor_wgs84,0.6465957164764404,0.2369137555360794,0.28360724449157715,0.6673475503921509,2.1658564342540853e-06,0.0,0.0,0.0,2.296315829633774e-06,0.0,0.0,0.0,6.098295514435359e-05,-0.007653474807739258,0.027068473398685455,0.038551826030015945,0.01,0.0,0.0,0.0,0.01,0.0,0.0,0.0,0.01,-0.036525875329971313,0.24279117584228516,-0.156030535697937,0.01,0.0,0.0,0.0,0.01,0.0,0.0,0.0,0.01
1700026235.4426563,26670,1700026235,421934080,sensor_wgs84,0.6465691328048706,0.23688052594661713,0.2838052809238434,0.6673009395599365,2.1658564342540853e-06,0.0,0.0,0.0,2.296315829633774e-06,0.0,0.0,0.0,6.098295514435359e-05,-0.010282761417329311,0.025169631466269493,0.022084852680563927,0.01,0.0,0.0,0.0,0.01,0.0,0.0,0.0,0.01,-0.03290414810180664,0.2688922882080078,-0.19906729459762573,0.01,0.0,0.0,0.0,0.01,0.0,0.0,0.0,0.01
1700026235.4481144,26671,1700026235,431948288,sensor_wgs84,0.6465234160423279,0.23687206208705902,0.28392094373703003,0.6672990322113037,2.1658564342540853e-06,0.0,0.0,0.0,2.296315829633774e-06,0.0,0.0,0.0,6.098295514435359e-05,-0.006942464970052242,0.007890424691140652,0.004013710655272007,0.01,0.0,0.0,0.0,0.01,0.0,0.0,0.0,0.01,-0.03952682018280029,0.28461647033691406,-0.2658997178077698,0.01,0.0,0.0,0.0,0.01,0.0,0.0,0.0,0.01
1700026235.4599717,26672,1700026235,441964544,sensor_wgs84,0.6464822888374329,0.23687340319156647,0.2839560806751251,0.6673234701156616,2.1658564342540853e-06,0.0,0.0,0.0,2.296315829633774e-06,0.0,0.0,0.0,6.098295514435359e-05,-0.004766032565385103,0.0037936351727694273,-0.002298501320183277,0.01,0.0,0.0,0.0,0.01,0.0,0.0,0.0,0.01,-0.061925530433654785,0.22505950927734375,-0.21869832277297974,0.01,0.0,0.0,0.0,0.01,0.0,0.0,0.0,0.01
1700026235.4757621,26673,1700026235,451982848,sensor_wgs84,0.64647376537323,0.23688457906246185,0.28394579887390137,0.6673321723937988,2.1658564342540853e-06,0.0,0.0,0.0,2.296315829633774e-06,0.0,0.0,0.0,6.098295514435359e-05,0.008474718779325485,0.0012408473994582891,-0.0007989950245246291,0.01,0.0,0.0,0.0,0.01,0.0,0.0,0.0,0.01,-0.09729796648025513,0.19102191925048828,-0.11072993278503418,0.01,0.0,0.0,0.0,0.01,0.0,0.0,0.0,0.01
1700026235.4798188,26674,1700026235,461997824,sensor_wgs84,0.6465170383453369,0.23689857125282288,0.2839381992816925,0.6672885417938232,2.1658564342540853e-06,0.0,0.0,0.0,2.296315829633774e-06,0.0,0.0,0.0,6.098295514435359e-05,0.021938391029834747,0.006529984995722771,0.005431909579783678,0.01,0.0,0.0,0.0,0.01,0.0,0.0,0.0,0.01,-0.13762778043746948,0.19286155700683594,-0.08664488792419434,0.01,0.0,0.0,0.0,0.01,0.0,0.0,0.0,0.01
1700026235.4903984,26675,1700026235,472014848,sensor_wgs84,0.646592915058136,0.23695804178714752,0.2839445471763611,0.6671911478042603,2.1658564342540853e-06,0.0,0.0,0.0,2.296315829633774e-06,0.0,0.0,0.0,6.098295514435359e-05,0.03274073451757431,0.012272038497030735,-0.0007607096922583878,0.01,0.0,0.0,0.0,0.01,0.0,0.0,0.0,0.01,-0.16819870471954346,0.21138763427734375,-0.027133822441101074,0.01,0.0,0.0,0.0,0.01,0.0,0.0,0.0,0.01
1700026235.503638,26676,1700026235,482034432,sensor_wgs84,0.6467019319534302,0.23707102239131927,0.2839481234550476,0.6670438647270203,2.1658564342540853e-06,0.0,0.0,0.0,2.296315829633774e-06,0.0,0.0,0.0,6.098295514435359e-05,0.04436255618929863,0.02370995469391346,-0.0016769394278526306,0.01,0.0,0.0,0.0,0.01,0.0,0.0,0.0,0.01,-0.197706401348114,0.20109272003173828,-0.008137106895446777,0.01,0.0,0.0,0.0,0.01,0.0,0.0,0.0,0.01
1700026235.5077958,26677,1700026235,492048384,sensor_wgs84,0.6468183398246765,0.23726338148117065,0.28395897150039673,0.6668579578399658,2.1658564342540853e-06,0.0,0.0,0.0,2.296315829633774e-06,0.0,0.0,0.0,6.098295514435359e-05,0.05357799306511879,0.03385774418711662,-0.011613690294325352,0.01,0.0,0.0,0.0,0.01,0.0,0.0,0.0,0.01,-0.20731592178344727,0.2190256118774414,-0.012195587158203125,0.01,0.0,0.0,0.0,0.01,0.0,0.0,0.0,0.01
1700026235.5207767,26678,1700026235,502065408,sensor_wgs84,0.6469201445579529,0.2375551015138626,0.2839568257331848,0.6666561365127563,2.1658564342540853e-06,0.0,0.0,0.0,2.296315829633774e-06,0.0,0.0,0.0,6.098295514435359e-05,0.056314386427402496,0.04959037899971008,-0.03184723109006882,0.01,0.0,0.0,0.0,0.01,0.0,0.0,0.0,0.01,-0.18731513619422913,0.20188617706298828,0.04958844184875488,0.01,0.0,0.0,0.0,0.01,0.0,0.0,0.0,0.01
1700026235.539759,26679,1700026235,512084480,sensor_wgs84,0.6469795107841492,0.23797327280044556,0.28395411372184753,0.6664506196975708,2.1658564342540853e-06,0.0,0.0,0.0,2.296315829633774e-06,0.0,0.0,0.0,6.098295514435359e-05,0.06321080029010773,0.06963925063610077,-0.0481540746986866,0.01,0.0,0.0,0.0,0.01,0.0,0.0,0.0,0.01,-0.14011090993881226,0.163177490234375,0.07671159505844116,0.01,0.0,0.0,0.0,0.01,0.0,0.0,0.0,0.01
1700026235.5397933,26680,1700026235,522099968,sensor_wgs84,0.6469991207122803,0.23849478363990784,0.2839462459087372,0.6662483811378479,2.155918919681933e-06,0.0,0.0,0.0,2.284838434039177e-06,0.0,0.0,0.0,6.092150054429549e-05,0.06291206181049347,0.0801529660820961,-0.059074271470308304,0.01,0.0,0.0,0.0,0.01,0.0,0.0,0.0,0.01,-0.06263825297355652,0.014981269836425781,0.007854461669921875,0.01,0.0,0.0,0.0,0.01,0.0,0.0,0.0,0.01
1700026235.5514402,26681,1700026235,532117760,sensor_wgs84,0.6470061540603638,0.23903824388980865,0.283974826335907,0.6660345792770386,2.155918919681933e-06,0.0,0.0,0.0,2.284838434039177e-06,0.0,0.0,0.0,6.092150054429549e-05,0.06199271231889725,0.0895598977804184,-0.05380924046039581,0.01,0.0,0.0,0.0,0.01,0.0,0.0,0.0,0.01,-0.008390218019485474,-0.08711719512939453,-0.05608204007148743,0.01,0.0,0.0,0.0,0.01,0.0,0.0,0.0,0.01
1700026235.561855,26682,1700026235,542136064,sensor_wgs84,0.6470287442207336,0.23956584930419922,0.2840420603752136,0.6657944321632385,2.155918919681933e-06,0.0,0.0,0.0,2.284838434039177e-06,0.0,0.0,0.0,6.092150054429549e-05,0.06504795700311661,0.08596234023571014,-0.039305366575717926,0.01,0.0,0.0,0.0,0.01,0.0,0.0,0.0,0.01,0.060346513986587524,-0.0886697769165039,-0.12091454863548279,0.01,0.0,0.0,0.0,0.01,0.0,0.0,0.0,0.01
1700026235.5683534,26683,1700026235,552150784,sensor_wgs84,0.6470708250999451,0.2400321513414383,0.28411877155303955,0.6655527949333191,2.155918919681933e-06,0.0,0.0,0.0,2.284838434039177e-06,0.0,0.0,0.0,6.092150054429549e-05,0.05947660654783249,0.07563923299312592,-0.02620638720691204,0.01,0.0,0.0,0.0,0.01,0.0,0.0,0.0,0.01,0.1068895161151886,-0.08485126495361328,-0.12552383542060852,0.01,0.0,0.0,0.0,0.01,0.0,0.0,0.0,0.01
1700026235.5805564,26684,1700026235,562167552,sensor_wgs84,0.6471197605133057,0.24044539034366608,0.28416916728019714,0.6653344035148621,2.155918919681933e-06,0.0,0.0,0.0,2.284838434039177e-06,0.0,0.0,0.0,6.092150054429549e-05,0.04525604099035263,0.06312736123800278,-0.036237530410289764,0.01,0.0,0.0,0.0,0.01,0.0,0.0,0.0,0.01,0.1513671875,-0.08505916595458984,-0.09586292505264282,0.01,0.0,0.0,0.0,0.01,0.0,0.0,0.0,0.01
1700026235.599065,26685,1700026235,572187392,sensor_wgs84,0.6471642255783081,0.24079175293445587,0.2841785252094269,0.6651619076728821,2.155918919681933e-06,0.0,0.0,0.0,2.284838434039177e-06,0.0,0.0,0.0,6.092150054429549e-05,0.042368363589048386,0.0475490503013134,-0.036432042717933655,0.01,0.0,0.0,0.0,0.01,0.0,0.0,0.0,0.01,0.17160773277282715,-0.11605548858642578,-0.0845499038696289,0.01,0.0,0.0,0.0,0.01,0.0,0.0,0.0,0.01
1700026235.599128,26686,1700026235,582201344,sensor_wgs84,0.6471906900405884,0.2410650998353958,0.28415733575820923,0.665046215057373,2.155918919681933e-06,0.0,0.0,0.0,2.284838434039177e-06,0.0,0.0,0.0,6.092150054429549e-05,0.029112614691257477,0.03343253955245018,-0.027764178812503815,0.01,0.0,0.0,0.0,0.01,0.0,0.0,0.0,0.01,0.20122912526130676,-0.16577625274658203,-0.09079137444496155,0.01,0.0,0.0,0.0,0.01,0.0,0.0,0.0,0.01
1700026235.6101782,26687,1700026235,592218112,sensor_wgs84,0.6473029255867004,0.24088728427886963,0.28379976749420166,0.6651540994644165,2.155918919681933e-06,0.0,0.0,0.0,2.284838434039177e-06,0.0,0.0,0.0,6.092150054429549e-05,0.014676094055175781,0.005513329524546862,-0.01692192442715168,0.01,0.0,0.0,0.0,0.01,0.0,0.0,0.0,0.01,0.17684438824653625,-0.19300174713134766,-0.12196803092956543,0.01,0.0,0.0,0.0,0.01,0.0,0.0,0.0,0.01
1700026235.6218688,26688,1700026235,602236672,sensor_wgs84,0.6473686099052429,0.24091984331607819,0.2837700843811035,0.6650909781455994,2.155918919681933e-06,0.0,0.0,0.0,2.284838434039177e-06,0.0,0.0,0.0,6.092150054429549e-05,0.018872113898396492,-0.008572293445467949,0.01262320950627327,0.01,0.0,0.0,0.0,0.01,0.0,0.0,0.0,0.01,0.12667542695999146,-0.2087860107421875,-0.07722046971321106,0.01,0.0,0.0,0.0,0.01,0.0,0.0,0.0,0.01
1700026235.6294541,26689,1700026235,612252160,sensor_wgs84,0.6474915146827698,0.24084213376045227,0.2837865650653839,0.6649925708770752,2.155918919681933e-06,0.0,0.0,0.0,2.284838434039177e-06,0.0,0.0,0.0,6.092150054429549e-05,0.02303430438041687,-0.011598506011068821,0.03103920817375183,0.01,0.0,0.0,0.0,0.01,0.0,0.0,0.0,0.01,0.08309248089790344,-0.09732246398925781,0.04773244261741638,0.01,0.0,0.0,0.0,0.01,0.0,0.0,0.0,0.01
1700026235.6448479,26690,1700026235,622268160,sensor_wgs84,0.6476258039474487,0.24074754118919373,0.2838370203971863,0.6648744940757751,2.155918919681933e-06,0.0,0.0,0.0,2.284838434039177e-06,0.0,0.0,0.0,6.092150054429549e-05,0.025487123057246208,-0.0073122442699968815,0.030787121504545212,0.01,0.0,0.0,0.0,0.01,0.0,0.0,0.0,0.01,0.0504184365272522,0.03547477722167969,0.0940445065498352,0.01,0.0,0.0,0.0,0.01,0.0,0.0,0.0,0.01
1700026235.6610272,26691,1700026235,632293632,sensor_wgs84,0.6477483510971069,0.24067451059818268,0.2838788628578186,0.6647636294364929,2.155918919681933e-06,0.0,0.0,0.0,2.284838434039177e-06,0.0,0.0,0.0,6.092150054429549e-05,0.024048278108239174,-0.007970337755978107,0.015033520758152008,0.01,0.0,0.0,0.0,0.01,0.0,0.0,0.0,0.01,0.02483341097831726,0.09548187255859375,0.02283993363380432,0.01,0.0,0.0,0.0,0.01,0.0,0.0,0.0,0.01
1700026235.6611195,26692,1700026235,642310144,sensor_wgs84,0.6478418111801147,0.24064427614212036,0.28385186195373535,0.6646950244903564,2.155918919681933e-06,0.0,0.0,0.0,2.284838434039177e-06,0.0,0.0,0.0,6.092150054429549e-05,0.01906523108482361,-0.015089075081050396,0.005012841429561377,0.01,0.0,0.0,0.0,0.01,0.0,0.0,0.0,0.01,-0.016476541757583618,0.008575439453125,-0.025205880403518677,0.01,0.0,0.0,0.0,0.01,0.0,0.0,0.0,0.01
1700026235.67037,26693,1700026235,652326400,sensor_wgs84,0.647936224937439,0.2406070977449417,0.2837759554386139,0.6646489500999451,2.155918919681933e-06,0.0,0.0,0.0,2.284838434039177e-06,0.0,0.0,0.0,6.092150054429549e-05,0.021103551611304283,-0.02179797738790512,0.0005854159826412797,0.01,0.0,0.0,0.0,0.01,0.0,0.0,0.0,0.01,-0.06146782636642456,-0.03690147399902344,-0.018366456031799316,0.01,0.0,0.0,0.0,0.01,0.0,0.0,0.0,0.01
1700026235.6822712,26694,1700026235,662344448,sensor_wgs84,0.6480416655540466,0.24056777358055115,0.28367099165916443,0.6646051406860352,2.155918919681933e-06,0.0,0.0,0.0,2.284838434039177e-06,0.0,0.0,0.0,6.092150054429549e-05,0.022652996703982353,-0.018923187628388405,-0.004039157181978226,0.01,0.0,0.0,0.0,0.01,0.0,0.0,0.0,0.01,-0.05716300010681152,0.06614303588867188,0.04230743646621704,0.01,0.0,0.0,0.0,0.01,0.0,0.0,0.0,0.01
1700026235.693415,26695,1700026235,672359424,sensor_wgs84,0.6481413841247559,0.24059633910655975,0.28352493047714233,0.6645598411560059,2.155918919681933e-06,0.0,0.0,0.0,2.284838434039177e-06,0.0,0.0,0.0,6.092150054429549e-05,0.03189323842525482,-0.0160616897046566,-0.026899125427007675,0.01,0.0,0.0,0.0,0.01,0.0,0.0,0.0,0.01,-0.08052822947502136,0.03120708465576172,0.0972825288772583,0.01,0.0,0.0,0.0,0.01,0.0,0.0,0.0,0.01
1700026235.6998975,26696,1700026235,682375936,sensor_wgs84,0.6482307314872742,0.2406773865222931,0.2833685278892517,0.6645100712776184,2.155918919681933e-06,0.0,0.0,0.0,2.284838434039177e-06,0.0,0.0,0.0,6.092150054429549e-05,0.03156500309705734,-0.010133571922779083,-0.030266162008047104,0.01,0.0,0.0,0.0,0.01,0.0,0.0,0.0,0.01,-0.10381284356117249,-0.05164146423339844,0.05383336544036865,0.01,0.0,0.0,0.0,0.01,0.0,0.0,0.0,0.01
1700026235.7120187,26697,1700026235,692394496,sensor_wgs84,0.648305356502533,0.2408103048801422,0.28320688009262085,0.6644580364227295,2.155918919681933e-06,0.0,0.0,0.0,2.284838434039177e-06,0.0,0.0,0.0,6.092150054429549e-05,0.027174685150384903,-0.0024144649505615234,-0.03420889377593994,0.01,0.0,0.0,0.0,0.01,0.0,0.0,0.0,0.01,-0.11564218997955322,-0.11821174621582031,0.03793823719024658,0.01,0.0,0.0,0.0,0.01,0.0,0.0,0.0,0.01
1700026235.7205253,26698,1700026235,702408192,sensor_wgs84,0.6483567953109741,0.24094979465007782,0.2830631732940674,0.6644185781478882,2.155918919681933e-06,0.0,0.0,0.0,2.284838434039177e-06,0.0,0.0,0.0,6.092150054429549e-05,0.02521323412656784,-0.00023024424444884062,-0.029748043045401573,0.01,0.0,0.0,0.0,0.01,0.0,0.0,0.0,0.01,-0.12922975420951843,-0.1804189682006836,-0.0026710033416748047,0.01,0.0,0.0,0.0,0.01,0.0,0.0,0.0,0.01
1700026235.7361808,26699,1700026235,712430080,sensor_wgs84,0.6484090089797974,0.2410849630832672,0.2829441726207733,0.6643692851066589,2.155918919681933e-06,0.0,0.0,0.0,2.284838434039177e-06,0.0,0.0,0.0,6.092150054429549e-05,0.030594779178500175,0.0006220428040251136,-0.02847176603972912,0.01,0.0,0.0,0.0,0.01,0.0,0.0,0.0,0.01,-0.12298458814620972,-0.12503719329833984,-0.0827348530292511,0.01,0.0,0.0,0.0,0.01,0.0,0.0,0.0,0.01
1700026235.743382,26700,1700026235,722448896,sensor_wgs84,0.6484760642051697,0.2412106692790985,0.2827901244163513,0.6643237471580505,2.146133867627354e-06,0.0,0.0,0.0,2.2735726975306307e-06,0.0,0.0,0.0,6.086093425853537e-05,0.03649720549583435,-0.012272801250219345,-0.030626453459262848,0.01,0.0,0.0,0.0,0.01,0.0,0.0,0.0,0.01,-0.14062365889549255,-0.09965229034423828,-0.05222204327583313,0.01,0.0,0.0,0.0,0.01,0.0,0.0,0.0,0.01
1700026235.7568307,26701,1700026235,732466688,sensor_wgs84,0.6485697031021118,0.24133780598640442,0.28259921073913574,0.664267361164093,2.146133867627354e-06,0.0,0.0,0.0,2.2735726975306307e-06,0.0,0.0,0.0,6.086093425853537e-05,0.03690557926893234,-0.012467938475310802,-0.032158225774765015,0.01,0.0,0.0,0.0,0.01,0.0,0.0,0.0,0.01,-0.16970643401145935,-0.16948223114013672,0.012805372476577759,0.01,0.0,0.0,0.0,0.01,0.0,0.0,0.0,0.01
1700026235.760517,26702,1700026235,742483456,sensor_wgs84,0.6486632823944092,0.24147602915763855,0.2824242413043976,0.6642001867294312,2.146133867627354e-06,0.0,0.0,0.0,2.2735726975306307e-06,0.0,0.0,0.0,6.086093425853537e-05,0.0368645042181015,0.0013201955007389188,-0.031126637011766434,0.01,0.0,0.0,0.0,0.01,0.0,0.0,0.0,0.01,-0.18741220235824585,-0.2383098602294922,0.11806055903434753,0.01,0.0,0.0,0.0,0.01,0.0,0.0,0.0,0.01
1700026235.7710035,26703,1700026235,752500992,sensor_wgs84,0.6487084627151489,0.24163499474525452,0.28230053186416626,0.6641507744789124,2.146133867627354e-06,0.0,0.0,0.0,2.2735726975306307e-06,0.0,0.0,0.0,6.086093425853537e-05,0.020180370658636093,0.006868497934192419,-0.025696102529764175,0.01,0.0,0.0,0.0,0.01,0.0,0.0,0.0,0.01,-0.19586879014968872,-0.2887907028198242,0.1135280430316925,0.01,0.0,0.0,0.0,0.01,0.0,0.0,0.0,0.01
1700026235.778369,26704,1700026235,762515456,sensor_wgs84,0.648692786693573,0.24180035293102264,0.2822530269622803,0.6641261577606201,2.146133867627354e-06,0.0,0.0,0.0,2.2735726975306307e-06,0.0,0.0,0.0,6.086093425853537e-05,0.006341478321701288,0.02466084249317646,-0.022907767444849014,0.01,0.0,0.0,0.0,0.01,0.0,0.0,0.0,0.01,-0.1985202133655548,-0.2944927215576172,0.204773411154747,0.01,0.0,0.0,0.0,0.01,0.0,0.0,0.0,0.01
1700026235.7908902,26705,1700026235,772531712,sensor_wgs84,0.6486243009567261,0.2419946938753128,0.28230491280555725,0.664100170135498,2.146133867627354e-06,0.0,0.0,0.0,2.2735726975306307e-06,0.0,0.0,0.0,6.086093425853537e-05,-0.0019163978286087513,0.051026470959186554,-0.022025059908628464,0.01,0.0,0.0,0.0,0.01,0.0,0.0,0.0,0.01,-0.16546860337257385,-0.2370309829711914,0.2631475329399109,0.01,0.0,0.0,0.0,0.01,0.0,0.0,0.0,0.01
1700026235.8023865,26706,1700026235,782549504,sensor_wgs84,0.64847731590271,0.24226078391075134,0.2824430763721466,0.6640880107879639,2.146133867627354e-06,0.0,0.0,0.0,2.2735726975306307e-06,0.0,0.0,0.0,6.086093425853537e-05,-0.01729421876370907,0.07006080448627472,-0.029745591804385185,0.01,0.0,0.0,0.0,0.01,0.0,0.0,0.0,0.01,-0.1153077781200409,-0.14985179901123047,0.1851138472557068,0.01,0.0,0.0,0.0,0.01,0.0,0.0,0.0,0.01
1700026235.8147724,26707,1700026235,792562944,sensor_wgs84,0.6482411026954651,0.2425927370786667,0.2826176881790161,0.6641231179237366,2.146133867627354e-06,0.0,0.0,0.0,2.2735726975306307e-06,0.0,0.0,0.0,6.086093425853537e-05,-0.03441929072141647,0.0801159143447876,-0.04237540066242218,0.01,0.0,0.0,0.0,0.01,0.0,0.0,0.0,0.01,-0.05709141492843628,-0.13671016693115234,0.062284648418426514,0.01,0.0,0.0,0.0,0.01,0.0,0.0,0.0,0.01
1700026235.8201401,26708,1700026235,802579456,sensor_wgs84,0.6479290127754211,0.24297857284545898,0.2827865779399872,0.6642147302627563,2.146133867627354e-06,0.0,0.0,0.0,2.2735726975306307e-06,0.0,0.0,0.0,6.086093425853537e-05,-0.04548557847738266,0.08636985719203949,-0.0536343976855278,0.01,0.0,0.0,0.0,0.01,0.0,0.0,0.0,0.01,0.013754278421401978,-0.13186359405517578,-0.021345585584640503,0.01,0.0,0.0,0.0,0.01,0.0,0.0,0.0,0.01
1700026235.831861,26709,1700026235,812597504,sensor_wgs84,0.6475643515586853,0.24337874352931976,0.2829326093196869,0.6643616557121277,2.146133867627354e-06,0.0,0.0,0.0,2.2735726975306307e-06,0.0,0.0,0.0,6.086093425853537e-05,-0.055984608829021454,0.07479361444711685,-0.06310650706291199,0.01,0.0,0.0,0.0,0.01,0.0,0.0,0.0,0.01,0.08223626017570496,-0.0751638412475586,-0.1930975615978241,0.01,0.0,0.0,0.0,0.01,0.0,0.0,0.0,0.01
1700026235.8405945,26710,1700026235,822612736,sensor_wgs84,0.6471858024597168,0.24373015761375427,0.2830315828323364,0.664559543132782,2.146133867627354e-06,0.0,0.0,0.0,2.2735726975306307e-06,0.0,0.0,0.0,6.086093425853537e-05,-0.061248764395713806,0.06424793601036072,-0.05706234276294708,0.01,0.0,0.0,0.0,0.01,0.0,0.0,0.0,0.01,0.12460055947303772,-0.0948171615600586,-0.1717737317085266,0.01,0.0,0.0,0.0,0.01,0.0,0.0,0.0,0.01
1700026235.8564003,26711,1700026235,832634880,sensor_wgs84,0.6468521952629089,0.24402399361133575,0.2831423282623291,0.6647292375564575,2.146133867627354e-06,0.0,0.0,0.0,2.2735726975306307e-06,0.0,0.0,0.0,6.086093425853537e-05,-0.04314021021127701,0.06341048330068588,-0.03446023538708687,0.01,0.0,0.0,0.0,0.01,0.0,0.0,0.0,0.01,0.1548888385295868,-0.12126636505126953,-0.11562678217887878,0.01,0.0,0.0,0.0,0.01,0.0,0.0,0.0,0.01
1700026235.861746,26712,1700026235,842652160,sensor_wgs84,0.6467307806015015,0.24393120408058167,0.28302764892578125,0.6649302840232849,2.146133867627354e-06,0.0,0.0,0.0,2.2735726975306307e-06,0.0,0.0,0.0,6.086093425853537e-05,-0.0371769517660141,0.06302107125520706,-0.006096771452575922,0.01,0.0,0.0,0.0,0.01,0.0,0.0,0.0,0.01,0.19062750041484833,0.0053653717041015625,-0.09085914492607117,0.01,0.0,0.0,0.0,0.01,0.0,0.0,0.0,0.01
1700026235.8705106,26713,1700026235,852666112,sensor_wgs84,0.6465345025062561,0.24413396418094635,0.2832595407962799,0.6649479866027832,2.146133867627354e-06,0.0,0.0,0.0,2.2735726975306307e-06,0.0,0.0,0.0,6.086093425853537e-05,-0.025929443538188934,0.06739328801631927,-0.008223406039178371,0.01,0.0,0.0,0.0,0.01,0.0,0.0,0.0,0.01,0.20159700512886047,0.1322803497314453,-0.17004838585853577,0.01,0.0,0.0,0.0,0.01,0.0,0.0,0.0,0.01
1700026235.8814151,26714,1700026235,862683136,sensor_wgs84,0.6463592648506165,0.2443155199289322,0.2834925651550293,0.6649523973464966,2.146133867627354e-06,0.0,0.0,0.0,2.2735726975306307e-06,0.0,0.0,0.0,6.086093425853537e-05,-0.021017136052250862,0.06028219312429428,-0.002827130490913987,0.01,0.0,0.0,0.0,0.01,0.0,0.0,0.0,0.01,0.20720534026622772,0.13507938385009766,-0.14619022607803345,0.01,0.0,0.0,0.0,0.01,0.0,0.0,0.0,0.01
1700026235.8920562,26715,1700026235,872700416,sensor_wgs84,0.6462109684944153,0.24449706077575684,0.2836976647377014,0.6649423241615295,2.146133867627354e-06,0.0,0.0,0.0,2.2735726975306307e-06,0.0,0.0,0.0,6.086093425853537e-05,-0.011380845680832863,0.05910080671310425,9.138486348092556e-05,0.01,0.0,0.0,0.0,0.01,0.0,0.0,0.0,0.01,0.24074389040470123,0.1635608673095703,-0.06483456492424011,0.01,0.0,0.0,0.0,0.01,0.0,0.0,0.0,0.01
1700026235.9008102,26716,1700026235,882714880,sensor_wgs84,0.6460638046264648,0.24468618631362915,0.28388887643814087,0.6649341583251953,2.146133867627354e-06,0.0,0.0,0.0,2.2735726975306307e-06,0.0,0.0,0.0,6.086093425853537e-05,-0.017240462824702263,0.05907140299677849,-0.01103434432297945,0.01,0.0,0.0,0.0,0.01,0.0,0.0,0.0,0.01,0.24980178475379944,0.13081836700439453,-0.14832043647766113,0.01,0.0,0.0,0.0,0.01,0.0,0.0,0.0,0.01
1700026235.9106057,26717,1700026235,892731392,sensor_wgs84,0.645927906036377,0.2448539137840271,0.2840541899204254,0.6649338603019714,2.146133867627354e-06,0.0,0.0,0.0,2.2735726975306307e-06,0.0,0.0,0.0,6.086093425853537e-05,-0.012086989358067513,0.053255487233400345,-0.0017235479317605495,0.01,0.0,0.0,0.0,0.01,0.0,0.0,0.0,0.01,0.26018857955932617,0.02511310577392578,-0.1613648235797882,0.01,0.0,0.0,0.0,0.01,0.0,0.0,0.0,0.01
1700026235.9224324,26718,1700026235,902749440,sensor_wgs84,0.6458312273025513,0.2449522167444229,0.28423961997032166,0.6649122834205627,2.146133867627354e-06,0.0,0.0,0.0,2.2735726975306307e-06,0.0,0.0,0.0,6.086093425853537e-05,-0.013193739578127861,0.041591547429561615,0.010880986228585243,0.01,0.0,0.0,0.0,0.01,0.0,0.0,0.0,0.01,0.29035547375679016,0.021677017211914062,-0.1507454216480255,0.01,0.0,0.0,0.0,0.01,0.0,0.0,0.0,0.01
1700026235.9336808,26719,1700026235,912763392,sensor_wgs84,0.6457532644271851,0.2449791580438614,0.28443050384521484,0.6648964881896973,2.146133867627354e-06,0.0,0.0,0.0,2.2735726975306307e-06,0.0,0.0,0.0,6.086093425853537e-05,-0.020075133070349693,0.026532363146543503,0.02256309613585472,0.01,0.0,0.0,0.0,0.01,0.0,0.0,0.0,0.01,0.301522433757782,0.058455467224121094,-0.1921335756778717,0.01,0.0,0.0,0.0,0.01,0.0,0.0,0.0,0.01
1700026235.9399886,26720,1700026235,922779648,sensor_wgs84,0.6456972360610962,0.24491244554519653,0.28459057211875916,0.664906919002533,2.1361614441393287e-06,0.0,0.0,0.0,2.2626366875645406e-06,0.0,0.0,0.0,6.08035861328004e-05,-0.021160172298550606,0.005067166406661272,0.035768065601587296,0.01,0.0,0.0,0.0,0.01,0.0,0.0,0.0,0.01,0.2594079077243805,0.026334762573242188,-0.20680618286132812,0.01,0.0,0.0,0.0,0.01,0.0,0.0,0.0,0.01
1700026235.9518332,26721,1700026235,932797696,sensor_wgs84,0.6456788778305054,0.2447613924741745,0.2847224473953247,0.6649239659309387,2.1361614441393287e-06,0.0,0.0,0.0,2.2626366875645406e-06,0.0,0.0,0.0,6.08035861328004e-05,-0.019025703892111778,-0.010403703898191452,0.041716769337654114,0.01,0.0,0.0,0.0,0.01,0.0,0.0,0.0,0.01,0.23080648481845856,0.07333564758300781,-0.09257450699806213,0.01,0.0,0.0,0.0,0.01,0.0,0.0,0.0,0.01
1700026235.9606383,26722,1700026235,942812928,sensor_wgs84,0.6456723213195801,0.24456466734409332,0.28484389185905457,0.6649507284164429,2.1361614441393287e-06,0.0,0.0,0.0,2.2626366875645406e-06,0.0,0.0,0.0,6.08035861328004e-05,-0.025781482458114624,-0.017735876142978668,0.03930024430155754,0.01,0.0,0.0,0.0,0.01,0.0,0.0,0.0,0.01,0.18414637446403503,0.12331771850585938,-0.0881240963935852,0.01,0.0,0.0,0.0,0.01,0.0,0.0,0.0,0.01
1700026235.9707196,26723,1700026235,952828672,sensor_wgs84,0.6456838846206665,0.24434824287891388,0.284946084022522,0.6649752259254456,2.1361614441393287e-06,0.0,0.0,0.0,2.2626366875645406e-06,0.0,0.0,0.0,6.08035861328004e-05,-0.016703426837921143,-0.017565926536917686,0.04627249389886856,0.01,0.0,0.0,0.0,0.01,0.0,0.0,0.0,0.01,0.1273605227470398,0.1131134033203125,-0.10912364721298218,0.01,0.0,0.0,0.0,0.01,0.0,0.0,0.0,0.01
1700026235.9818354,26724,1700026235,962846208,sensor_wgs84,0.6457210183143616,0.24410048127174377,0.28505533933639526,0.664983332157135,2.1361614441393287e-06,0.0,0.0,0.0,2.2626366875645406e-06,0.0,0.0,0.0,6.08035861328004e-05,-0.011192883364856243,-0.020539306104183197,0.04990457743406296,0.01,0.0,0.0,0.0,0.01,0.0,0.0,0.0,0.01,0.0891340970993042,0.11747264862060547,-0.06501597166061401,0.01,0.0,0.0,0.0,0.01,0.0,0.0,0.0,0.01
1700026235.9944165,26725,1700026235,972860416,sensor_wgs84,0.6457959413528442,0.24385876953601837,0.2851751446723938,0.6649479866027832,2.1361614441393287e-06,0.0,0.0,0.0,2.2626366875645406e-06,0.0,0.0,0.0,6.08035861328004e-05,-0.002029965166002512,-0.01906660757958889,0.05287366360425949,0.01,0.0,0.0,0.0,0.01,0.0,0.0,0.0,0.01,0.08825162053108215,0.1725616455078125,-0.04482516646385193,0.01,0.0,0.0,0.0,0.01,0.0,0.0,0.0,0.01
1700026236.0000312,26726,1700026235,982876160,sensor_wgs84,0.645896852016449,0.2436428815126419,0.28527405858039856,0.6648865938186646,2.1361614441393287e-06,0.0,0.0,0.0,2.2626366875645406e-06,0.0,0.0,0.0,6.08035861328004e-05,0.00397389056161046,-0.02463631145656109,0.04134928807616234,0.01,0.0,0.0,0.0,0.01,0.0,0.0,0.0,0.01,0.07378959655761719,0.19719314575195312,-0.0973132848739624,0.01,0.0,0.0,0.0,0.01,0.0,0.0,0.0,0.01
1700026236.0190055,26727,1700026235,992900096,sensor_wgs84,0.6460245251655579,0.24345549941062927,0.285305917263031,0.6648175716400146,2.1361614441393287e-06,0.0,0.0,0.0,2.2626366875645406e-06,0.0,0.0,0.0,6.08035861328004e-05,0.021273260936141014,-0.029509149491786957,0.03271370381116867,0.01,0.0,0.0,0.0,0.01,0.0,0.0,0.0,0.01,0.05196663737297058,0.14830780029296875,-0.16005277633666992,0.01,0.0,0.0,0.0,0.01,0.0,0.0,0.0,0.01
1700026236.0210247,26728,1700026236,2915584,sensor_wgs84,0.6461750864982605,0.24327996373176575,0.28526023030281067,0.66475510597229,2.1361614441393287e-06,0.0,0.0,0.0,2.2626366875645406e-06,0.0,0.0,0.0,6.08035861328004e-05,0.023465262725949287,-0.040869276970624924,0.02665473334491253,0.01,0.0,0.0,0.0,0.01,0.0,0.0,0.0,0.01,-0.029549449682235718,0.07732105255126953,-0.17273610830307007,0.01,0.0,0.0,0.0,0.01,0.0,0.0,0.0,0.01
1700026236.0377464,26729,1700026236,12932352,sensor_wgs84,0.6463289856910706,0.24310772120952606,0.28515172004699707,0.664715051651001,2.1361614441393287e-06,0.0,0.0,0.0,2.2626366875645406e-06,0.0,0.0,0.0,6.08035861328004e-05,0.01961277425289154,-0.04134250432252884,0.013916298747062683,0.01,0.0,0.0,0.0,0.01,0.0,0.0,0.0,0.01,-0.04187604784965515,0.12008094787597656,-0.0017239749431610107,0.01,0.0,0.0,0.0,0.01,0.0,0.0,0.0,0.01
1700026236.0417602,26730,1700026236,22950144,sensor_wgs84,0.6464399099349976,0.24300013482570648,0.28502124547958374,0.6647024154663086,2.1361614441393287e-06,0.0,0.0,0.0,2.2626366875645406e-06,0.0,0.0,0.0,6.08035861328004e-05,0.017079580575227737,-0.031915076076984406,-0.0015010153874754906,0.01,0.0,0.0,0.0,0.01,0.0,0.0,0.0,0.01,-0.03398168087005615,0.08983612060546875,0.1383054554462433,0.01,0.0,0.0,0.0,0.01,0.0,0.0,0.0,0.01
1700026236.0500278,26731,1700026236,32964864,sensor_wgs84,0.6464992165565491,0.24295470118522644,0.28489628434181213,0.6647149324417114,2.1361614441393287e-06,0.0,0.0,0.0,2.2626366875645406e-06,0.0,0.0,0.0,6.08035861328004e-05,0.004917093086987734,-0.021566377952694893,-0.00925296638160944,0.01,0.0,0.0,0.0,0.01,0.0,0.0,0.0,0.01,-0.0528315007686615,-0.0006685256958007812,0.014622151851654053,0.01,0.0,0.0,0.0,0.01,0.0,0.0,0.0,0.01
1700026236.0606139,26732,1700026236,42980352,sensor_wgs84,0.6465437412261963,0.24288266897201538,0.2848052382469177,0.6647369861602783,2.1361614441393287e-06,0.0,0.0,0.0,2.2626366875645406e-06,0.0,0.0,0.0,6.08035861328004e-05,-0.00021762633696198463,-0.02594570256769657,0.006393839605152607,0.01,0.0,0.0,0.0,0.01,0.0,0.0,0.0,0.01,-0.08234730362892151,-0.12327861785888672,-0.0747230052947998,0.01,0.0,0.0,0.0,0.01,0.0,0.0,0.0,0.01
1700026236.0717447,26733,1700026236,52997376,sensor_wgs84,0.6466328501701355,0.2427343726158142,0.28475719690322876,0.664725124835968,2.1361614441393287e-06,0.0,0.0,0.0,2.2626366875645406e-06,0.0,0.0,0.0,6.08035861328004e-05,0.007990510202944279,-0.028851481154561043,0.027370786294341087,0.01,0.0,0.0,0.0,0.01,0.0,0.0,0.0,0.01,-0.08989530801773071,-0.0979776382446289,0.01080477237701416,0.01,0.0,0.0,0.0,0.01,0.0,0.0,0.0,0.01
1700026236.0809736,26734,1700026236,63011584,sensor_wgs84,0.646759569644928,0.24252969026565552,0.28477492928504944,0.6646689176559448,2.1361614441393287e-06,0.0,0.0,0.0,2.2626366875645406e-06,0.0,0.0,0.0,6.08035861328004e-05,0.009437778033316135,-0.0316682904958725,0.04348142072558403,0.01,0.0,0.0,0.0,0.01,0.0,0.0,0.0,0.01,-0.08837541937828064,0.013247489929199219,0.0726003646850586,0.01,0.0,0.0,0.0,0.01,0.0,0.0,0.0,0.01
1700026236.0940511,26735,1700026236,73028864,sensor_wgs84,0.6468731760978699,0.24234463274478912,0.2848098576068878,0.6646108031272888,2.1361614441393287e-06,0.0,0.0,0.0,2.2626366875645406e-06,0.0,0.0,0.0,6.08035861328004e-05,0.012268860824406147,-0.021116863936185837,0.032266706228256226,0.01,0.0,0.0,0.0,0.01,0.0,0.0,0.0,0.01,-0.1132483184337616,0.023313522338867188,0.09746178984642029,0.01,0.0,0.0,0.0,0.01,0.0,0.0,0.0,0.01
1700026236.108973,26736,1700026236,83052800,sensor_wgs84,0.6469663381576538,0.24220408499240875,0.2848435044288635,0.6645569801330566,2.1361614441393287e-06,0.0,0.0,0.0,2.2626366875645406e-06,0.0,0.0,0.0,6.08035861328004e-05,0.010016554966568947,-0.012291456572711468,0.02617039531469345,0.01,0.0,0.0,0.0,0.01,0.0,0.0,0.0,0.01,-0.1453758180141449,-0.05285453796386719,0.0775885283946991,0.01,0.0,0.0,0.0,0.01,0.0,0.0,0.0,0.01
1700026236.1126442,26737,1700026236,93067520,sensor_wgs84,0.6471027135848999,0.24181558191776276,0.28454479575157166,0.6646937131881714,2.1361614441393287e-06,0.0,0.0,0.0,2.2626366875645406e-06,0.0,0.0,0.0,6.08035861328004e-05,0.002246169839054346,-0.0032027647830545902,0.019116858020424843,0.01,0.0,0.0,0.0,0.01,0.0,0.0,0.0,0.01,-0.14587491750717163,-0.12485408782958984,0.04806894063949585,0.01,0.0,0.0,0.0,0.01,0.0,0.0,0.0,0.01
1700026236.1197555,26738,1700026236,103083264,sensor_wgs84,0.6471150517463684,0.24174919724464417,0.28464603424072266,0.6646624803543091,2.1361614441393287e-06,0.0,0.0,0.0,2.2626366875645406e-06,0.0,0.0,0.0,6.08035861328004e-05,-0.009007475338876247,0.009503365494310856,0.02617860585451126,0.01,0.0,0.0,0.0,0.01,0.0,0.0,0.0,0.01,-0.1392308473587036,-0.11872673034667969,0.008862823247909546,0.01,0.0,0.0,0.0,0.01,0.0,0.0,0.0,0.01
1700026236.1325336,26739,1700026236,113101056,sensor_wgs84,0.6471050977706909,0.2416909784078598,0.28477492928504944,0.6646380424499512,2.128833674159983e-06,0.0,0.0,0.0,2.2515897382128022e-06,0.0,0.0,0.0,6.0728576831046164e-05,-0.013794086873531342,0.008558818139135838,0.02562898024916649,0.01,0.0,0.0,0.0,0.01,0.0,0.0,0.0,0.01,-0.12792211771011353,-0.050253868103027344,-0.07272714376449585,0.01,0.0,0.0,0.0,0.01,0.0,0.0,0.0,0.01
1700026236.1384878,26740,1700026236,123114496,sensor_wgs84,0.6470813751220703,0.24165749549865723,0.2848840057849884,0.6646265983581543,2.128833674159983e-06,0.0,0.0,0.0,2.2515897382128022e-06,0.0,0.0,0.0,6.0728576831046164e-05,-0.007149908225983381,0.012981077656149864,0.013827480375766754,0.01,0.0,0.0,0.0,0.01,0.0,0.0,0.0,0.01,-0.11956861615180969,0.009124755859375,-0.06731763482093811,0.01,0.0,0.0,0.0,0.01,0.0,0.0,0.0,0.01
1700026236.1603665,26741,1700026236,133130240,sensor_wgs84,0.6470472812652588,0.2416680008172989,0.28494569659233093,0.6646295785903931,2.128833674159983e-06,0.0,0.0,0.0,2.2515897382128022e-06,0.0,0.0,0.0,6.0728576831046164e-05,-0.007362177595496178,0.007743038237094879,-0.004966226872056723,0.01,0.0,0.0,0.0,0.01,0.0,0.0,0.0,0.01,-0.07949903607368469,0.1251535415649414,-0.10499000549316406,0.01,0.0,0.0,0.0,0.01,0.0,0.0,0.0,0.01
1700026236.1614773,26742,1700026236,143146752,sensor_wgs84,0.6469961404800415,0.24173572659492493,0.2849141061306,0.6646682620048523,2.128833674159983e-06,0.0,0.0,0.0,2.2515897382128022e-06,0.0,0.0,0.0,6.0728576831046164e-05,-0.006011009681969881,0.002182402415201068,-0.02982414700090885,0.01,0.0,0.0,0.0,0.01,0.0,0.0,0.0,0.01,-0.053104251623153687,0.12678813934326172,-0.09963321685791016,0.01,0.0,0.0,0.0,0.01,0.0,0.0,0.0,0.01
1700026236.16737,26743,1700026236,153160448,sensor_wgs84,0.6469236016273499,0.2418515682220459,0.2847917675971985,0.6647490859031677,2.128833674159983e-06,0.0,0.0,0.0,2.2515897382128022e-06,0.0,0.0,0.0,6.0728576831046164e-05,-0.009962547570466995,7.524597458541393e-05,-0.04787296801805496,0.01,0.0,0.0,0.0,0.01,0.0,0.0,0.0,0.01,-0.07102882862091064,0.04162883758544922,-0.15985390543937683,0.01,0.0,0.0,0.0,0.01,0.0,0.0,0.0,0.01
1700026236.1797922,26744,1700026236,163176192,sensor_wgs84,0.6468487977981567,0.24196620285511017,0.2846185863018036,0.6648543477058411,2.128833674159983e-06,0.0,0.0,0.0,2.2515897382128022e-06,0.0,0.0,0.0,6.0728576831046164e-05,-0.007506587542593479,-0.007359573617577553,-0.043115321546792984,0.01,0.0,0.0,0.0,0.01,0.0,0.0,0.0,0.01,-0.07696646451950073,-0.06161212921142578,-0.03159341216087341,0.01,0.0,0.0,0.0,0.01,0.0,0.0,0.0,0.01
1700026236.2100341,26745,1700026236,173200128,sensor_wgs84,0.6467978358268738,0.24207060039043427,0.2844558656215668,0.6649355292320251,2.128833674159983e-06,0.0,0.0,0.0,2.2515897382128022e-06,0.0,0.0,0.0,6.0728576831046164e-05,-0.004548636730760336,-0.002667076885700226,-0.038850072771310806,0.01,0.0,0.0,0.0,0.01,0.0,0.0,0.0,0.01,-0.06882485747337341,-0.08510112762451172,0.10075566172599792,0.01,0.0,0.0,0.0,0.01,0.0,0.0,0.0,0.01
1700026236.2105825,26746,1700026236,183216384,sensor_wgs84,0.6467559337615967,0.24219666421413422,0.2843579351902008,0.6649723052978516,2.128833674159983e-06,0.0,0.0,0.0,2.2515897382128022e-06,0.0,0.0,0.0,6.0728576831046164e-05,0.0009040663717314601,0.006997993215918541,-0.030718205496668816,0.01,0.0,0.0,0.0,0.01,0.0,0.0,0.0,0.01,-0.04969450831413269,-0.03401756286621094,0.08814623951911926,0.01,0.0,0.0,0.0,0.01,0.0,0.0,0.0,0.01
1700026236.2121608,26747,1700026236,193232640,sensor_wgs84,0.6467011570930481,0.24233679473400116,0.28429752588272095,0.6650003790855408,2.128833674159983e-06,0.0,0.0,0.0,2.2515897382128022e-06,0.0,0.0,0.0,6.0728576831046164e-05,0.0010063365334644914,0.019787730649113655,-0.031143225729465485,0.01,0.0,0.0,0.0,0.01,0.0,0.0,0.0,0.01,-0.05660238862037659,-0.028516769409179688,0.04376828670501709,0.01,0.0,0.0,0.0,0.01,0.0,0.0,0.0,0.01
1700026236.221757,26748,1700026236,203249920,sensor_wgs84,0.6466144323348999,0.24250398576259613,0.2842572033405304,0.6650409698486328,2.128833674159983e-06,0.0,0.0,0.0,2.2515897382128022e-06,0.0,0.0,0.0,6.0728576831046164e-05,-0.00744363060221076,0.018773449584841728,-0.030794642865657806,0.01,0.0,0.0,0.0,0.01,0.0,0.0,0.0,0.01,-0.04667750000953674,-0.0386505126953125,-0.03538644313812256,0.01,0.0,0.0,0.0,0.01,0.0,0.0,0.0,0.01
1700026236.2316375,26749,1700026236,213263360,sensor_wgs84,0.6464998722076416,0.24265344440937042,0.28422003984451294,0.6651137471199036,2.128833674159983e-06,0.0,0.0,0.0,2.2515897382128022e-06,0.0,0.0,0.0,6.0728576831046164e-05,-0.0159235168248415,0.013176923617720604,-0.03520571067929268,0.01,0.0,0.0,0.0,0.01,0.0,0.0,0.0,0.01,-0.016730964183807373,0.0024042129516601562,-0.10554003715515137,0.01,0.0,0.0,0.0,0.01,0.0,0.0,0.0,0.01
1700026236.2417529,26750,1700026236,223279360,sensor_wgs84,0.6463845372200012,0.2427818775177002,0.2841516137123108,0.6652081608772278,2.128833674159983e-06,0.0,0.0,0.0,2.2515897382128022e-06,0.0,0.0,0.0,6.0728576831046164e-05,-0.017686879262328148,0.007181029766798019,-0.03834018483757973,0.01,0.0,0.0,0.0,0.01,0.0,0.0,0.0,0.01,-0.015275746583938599,0.004685401916503906,-0.09102463722229004,0.01,0.0,0.0,0.0,0.01,0.0,0.0,0.0,0.01
1700026236.2542148,26751,1700026236,233297408,sensor_wgs84,0.6462704539299011,0.24289286136627197,0.28405705094337463,0.6653188467025757,2.128833674159983e-06,0.0,0.0,0.0,2.2515897382128022e-06,0.0,0.0,0.0,6.0728576831046164e-05,-0.020398225635290146,0.003701733658090234,-0.03988778591156006,0.01,0.0,0.0,0.0,0.01,0.0,0.0,0.0,0.01,-0.017439544200897217,-0.0018529891967773438,-0.04059848189353943,0.01,0.0,0.0,0.0,0.01,0.0,0.0,0.0,0.01
1700026236.2610838,26752,1700026236,243310592,sensor_wgs84,0.6461638808250427,0.24298430979251862,0.28396832942962646,0.6654269099235535,2.128833674159983e-06,0.0,0.0,0.0,2.2515897382128022e-06,0.0,0.0,0.0,6.0728576831046164e-05,-0.015756141394376755,0.0014434920158237219,-0.0360536053776741,0.01,0.0,0.0,0.0,0.01,0.0,0.0,0.0,0.01,-0.0033883750438690186,-0.03792095184326172,-0.05047914385795593,0.01,0.0,0.0,0.0,0.01,0.0,0.0,0.0,0.01
1700026236.2718139,26753,1700026236,253326848,sensor_wgs84,0.646053671836853,0.24305088818073273,0.28390711545944214,0.6655356884002686,2.128833674159983e-06,0.0,0.0,0.0,2.2515897382128022e-06,0.0,0.0,0.0,6.0728576831046164e-05,-0.026807937771081924,0.0032355620060116053,-0.02419237419962883,0.01,0.0,0.0,0.0,0.01,0.0,0.0,0.0,0.01,-0.033916085958480835,-0.08687496185302734,-0.06223326921463013,0.01,0.0,0.0,0.0,0.01,0.0,0.0,0.0,0.01
1700026236.2894342,26754,1700026236,263351040,sensor_wgs84,0.6459473967552185,0.2430689036846161,0.2839009761810303,0.6656349301338196,2.128833674159983e-06,0.0,0.0,0.0,2.2515897382128022e-06,0.0,0.0,0.0,6.0728576831046164e-05,-0.028753243386745453,0.0025804706383496523,-0.009464330039918423,0.01,0.0,0.0,0.0,0.01,0.0,0.0,0.0,0.01,-0.026897728443145752,-0.08065128326416016,-0.05065670609474182,0.01,0.0,0.0,0.0,0.01,0.0,0.0,0.0,0.01
1700026236.2951589,26755,1700026236,273366272,sensor_wgs84,0.645842432975769,0.24302621185779572,0.28394296765327454,0.6657344102859497,2.128833674159983e-06,0.0,0.0,0.0,2.2515897382128022e-06,0.0,0.0,0.0,6.0728576831046164e-05,-0.029329588636755943,0.0030044058803468943,0.009769336320459843,0.01,0.0,0.0,0.0,0.01,0.0,0.0,0.0,0.01,-0.0519770085811615,0.00032806396484375,-0.03412309288978577,0.01,0.0,0.0,0.0,0.01,0.0,0.0,0.0,0.01
1700026236.3042588,26756,1700026236,283381760,sensor_wgs84,0.6457564830780029,0.24293673038482666,0.28399866819381714,0.6658266186714172,2.128833674159983e-06,0.0,0.0,0.0,2.2515897382128022e-06,0.0,0.0,0.0,6.0728576831046164e-05,-0.027791185304522514,-0.006356790661811829,0.01275045145303011,0.01,0.0,0.0,0.0,0.01,0.0,0.0,0.0,0.01,-0.09396257996559143,0.07371330261230469,-0.09290504455566406,0.01,0.0,0.0,0.0,0.01,0.0,0.0,0.0,0.01
1700026236.3163776,26757,1700026236,293401088,sensor_wgs84,0.645671546459198,0.2428245097398758,0.284054696559906,0.6659260392189026,2.128833674159983e-06,0.0,0.0,0.0,2.2515897382128022e-06,0.0,0.0,0.0,6.0728576831046164e-05,-0.03674514964222908,-0.012762108817696571,0.01008240319788456,0.01,0.0,0.0,0.0,0.01,0.0,0.0,0.0,0.01,-0.15343818068504333,0.1570444107055664,-0.08401402831077576,0.01,0.0,0.0,0.0,0.01,0.0,0.0,0.0,0.01
1700026236.3188722,26758,1700026236,303414784,sensor_wgs84,0.6455745100975037,0.24272875487804413,0.2840762436389923,0.6660458445549011,2.128833674159983e-06,0.0,0.0,0.0,2.2515897382128022e-06,0.0,0.0,0.0,6.0728576831046164e-05,-0.031675953418016434,-0.008520200848579407,-0.005498131737112999,0.01,0.0,0.0,0.0,0.01,0.0,0.0,0.0,0.01,-0.19106793403625488,0.2521038055419922,-0.022632598876953125,0.01,0.0,0.0,0.0,0.01,0.0,0.0,0.0,0.01
1700026236.3305883,26759,1700026236,313430272,sensor_wgs84,0.645444393157959,0.242725670337677,0.2840433120727539,0.6661871075630188,2.141258034866903e-06,0.0,0.0,0.0,2.2651032959771384e-06,0.0,0.0,0.0,6.0765545723331926e-05,-0.03819170966744423,-0.0005605260375887156,-0.033778127282857895,0.01,0.0,0.0,0.0,0.01,0.0,0.0,0.0,0.01,-0.22149434685707092,0.2348041534423828,0.03342372179031372,0.01,0.0,0.0,0.0,0.01,0.0,0.0,0.0,0.01
1700026236.342563,26760,1700026236,323448064,sensor_wgs84,0.6452530026435852,0.24282479286193848,0.2839793860912323,0.6663636565208435,2.141258034866903e-06,0.0,0.0,0.0,2.2651032959771384e-06,0.0,0.0,0.0,6.0765545723331926e-05,-0.04618813470005989,0.014602855779230595,-0.050585489720106125,0.01,0.0,0.0,0.0,0.01,0.0,0.0,0.0,0.01,-0.22122147679328918,0.12366867065429688,-0.0044609904289245605,0.01,0.0,0.0,0.0,0.01,0.0,0.0,0.0,0.01
1700026236.354767,26761,1700026236,333467136,sensor_wgs84,0.6450047492980957,0.24300609529018402,0.28390756249427795,0.666568398475647,2.141258034866903e-06,0.0,0.0,0.0,2.2651032959771384e-06,0.0,0.0,0.0,6.0765545723331926e-05,-0.04648541286587715,0.020367804914712906,-0.05934012681245804,0.01,0.0,0.0,0.0,0.01,0.0,0.0,0.0,0.01,-0.2129783034324646,0.049866676330566406,-0.02140897512435913,0.01,0.0,0.0,0.0,0.01,0.0,0.0,0.0,0.01
1700026236.3601663,26762,1700026236,343481856,sensor_wgs84,0.6448473334312439,0.2428857535123825,0.2835647463798523,0.6669104099273682,2.141258034866903e-06,0.0,0.0,0.0,2.2651032959771384e-06,0.0,0.0,0.0,6.0765545723331926e-05,-0.047351665794849396,0.03345966711640358,-0.06541405618190765,0.01,0.0,0.0,0.0,0.01,0.0,0.0,0.0,0.01,-0.15687841176986694,-0.00402069091796875,0.06721106171607971,0.01,0.0,0.0,0.0,0.01,0.0,0.0,0.0,0.01
1700026236.378505,26763,1700026236,353505792,sensor_wgs84,0.6445640325546265,0.24315983057022095,0.2835257947444916,0.6671010255813599,2.141258034866903e-06,0.0,0.0,0.0,2.2651032959771384e-06,0.0,0.0,0.0,6.0765545723331926e-05,-0.04065614566206932,0.041993554681539536,-0.06473632901906967,0.01,0.0,0.0,0.0,0.01,0.0,0.0,0.0,0.01,-0.11740657687187195,-0.040213584899902344,-0.07020831108093262,0.01,0.0,0.0,0.0,0.01,0.0,0.0,0.0,0.01
1700026236.3827782,26764,1700026236,363520000,sensor_wgs84,0.644287109375,0.243454247713089,0.2835126519203186,0.6672667264938354,2.141258034866903e-06,0.0,0.0,0.0,2.2651032959771384e-06,0.0,0.0,0.0,6.0765545723331926e-05,-0.03717287257313728,0.04899347573518753,-0.0598265565931797,0.01,0.0,0.0,0.0,0.01,0.0,0.0,0.0,0.01,-0.12134239077568054,-0.002857208251953125,0.004998445510864258,0.01,0.0,0.0,0.0,0.01,0.0,0.0,0.0,0.01
1700026236.3928118,26765,1700026236,373534976,sensor_wgs84,0.6440538167953491,0.2437632977962494,0.28351980447769165,0.6673760414123535,2.141258034866903e-06,0.0,0.0,0.0,2.2651032959771384e-06,0.0,0.0,0.0,6.0765545723331926e-05,-0.018423639237880707,0.05445702746510506,-0.047456804662942886,0.01,0.0,0.0,0.0,0.01,0.0,0.0,0.0,0.01,-0.051359742879867554,-0.049137115478515625,0.10191270709037781,0.01,0.0,0.0,0.0,0.01,0.0,0.0,0.0,0.01
1700026236.4034765,26766,1700026236,383552000,sensor_wgs84,0.643894612789154,0.24408549070358276,0.2835741937160492,0.6673887968063354,2.141258034866903e-06,0.0,0.0,0.0,2.2651032959771384e-06,0.0,0.0,0.0,6.0765545723331926e-05,-0.003975739702582359,0.056823763996362686,-0.03801882639527321,0.01,0.0,0.0,0.0,0.01,0.0,0.0,0.0,0.01,0.017834067344665527,0.026018142700195312,-0.06629890203475952,0.01,0.0,0.0,0.0,0.01,0.0,0.0,0.0,0.01
1700026236.4128888,26767,1700026236,393565440,sensor_wgs84,0.643791913986206,0.24438874423503876,0.283608078956604,0.6673625111579895,2.141258034866903e-06,0.0,0.0,0.0,2.2651032959771384e-06,0.0,0.0,0.0,6.0765545723331926e-05,0.001807487802579999,0.045795463025569916,-0.04338064044713974,0.01,0.0,0.0,0.0,0.01,0.0,0.0,0.0,0.01,0.05752548575401306,0.09424877166748047,-0.06956177949905396,0.01,0.0,0.0,0.0,0.01,0.0,0.0,0.0,0.01
1700026236.4228997,26768,1700026236,403582208,sensor_wgs84,0.6437185406684875,0.24469469487667084,0.2836003303527832,0.6673243641853333,2.141258034866903e-06,0.0,0.0,0.0,2.2651032959771384e-06,0.0,0.0,0.0,6.0765545723331926e-05,0.023175783455371857,0.04057232290506363,-0.04173421114683151,0.01,0.0,0.0,0.0,0.01,0.0,0.0,0.0,0.01,0.03349742293357849,0.029067039489746094,-0.08425688743591309,0.01,0.0,0.0,0.0,0.01,0.0,0.0,0.0,0.01
1700026236.433858,26769,1700026236,413599744,sensor_wgs84,0.6436845660209656,0.244983971118927,0.2835562229156494,0.667269766330719,2.141258034866903e-06,0.0,0.0,0.0,2.2651032959771384e-06,0.0,0.0,0.0,6.0765545723331926e-05,0.019094383344054222,0.033435214310884476,-0.04657219722867012,0.01,0.0,0.0,0.0,0.01,0.0,0.0,0.0,0.01,0.11437496542930603,0.07272529602050781,-0.11026298999786377,0.01,0.0,0.0,0.0,0.01,0.0,0.0,0.0,0.01
1700026236.442393,26770,1700026236,423612928,sensor_wgs84,0.6436396837234497,0.24526847898960114,0.28345590829849243,0.6672511696815491,2.141258034866903e-06,0.0,0.0,0.0,2.2651032959771384e-06,0.0,0.0,0.0,6.0765545723331926e-05,0.017971033230423927,0.022610431537032127,-0.05480104312300682,0.01,0.0,0.0,0.0,0.01,0.0,0.0,0.0,0.01,0.12069946527481079,0.021453857421875,-0.10586196184158325,0.01,0.0,0.0,0.0,0.01,0.0,0.0,0.0,0.01
1700026236.4524174,26771,1700026236,433627904,sensor_wgs84,0.6436018943786621,0.24553731083869934,0.2832961678504944,0.6672565937042236,2.141258034866903e-06,0.0,0.0,0.0,2.2651032959771384e-06,0.0,0.0,0.0,6.0765545723331926e-05,0.018850162625312805,0.014695679768919945,-0.06533242017030716,0.01,0.0,0.0,0.0,0.01,0.0,0.0,0.0,0.01,0.1222238838672638,0.05078411102294922,-0.15781590342521667,0.01,0.0,0.0,0.0,0.01,0.0,0.0,0.0,0.01
1700026236.4688833,26772,1700026236,443651328,sensor_wgs84,0.6435477137565613,0.2457939237356186,0.2830638885498047,0.6673129796981812,2.141258034866903e-06,0.0,0.0,0.0,2.2651032959771384e-06,0.0,0.0,0.0,6.0765545723331926e-05,0.008816439658403397,0.0018388775642961264,-0.07433322072029114,0.01,0.0,0.0,0.0,0.01,0.0,0.0,0.0,0.01,0.11129982769489288,-0.010430335998535156,-0.054667890071868896,0.01,0.0,0.0,0.0,0.01,0.0,0.0,0.0,0.01
1700026236.4729586,26773,1700026236,453666304,sensor_wgs84,0.6434698700904846,0.24603527784347534,0.2827991843223572,0.6674112677574158,2.141258034866903e-06,0.0,0.0,0.0,2.2651032959771384e-06,0.0,0.0,0.0,6.0765545723331926e-05,-0.0016760563012212515,-0.003970026969909668,-0.07572980970144272,0.01,0.0,0.0,0.0,0.01,0.0,0.0,0.0,0.01,0.10730098187923431,-0.014448165893554688,-0.020482122898101807,0.01,0.0,0.0,0.0,0.01,0.0,0.0,0.0,0.01
1700026236.483028,26774,1700026236,463681792,sensor_wgs84,0.6433776617050171,0.24625638127326965,0.2825072109699249,0.6675423383712769,2.141258034866903e-06,0.0,0.0,0.0,2.2651032959771384e-06,0.0,0.0,0.0,6.0765545723331926e-05,-0.005071206018328667,-0.016783500090241432,-0.0814623162150383,0.01,0.0,0.0,0.0,0.01,0.0,0.0,0.0,0.01,0.1114104688167572,0.035004615783691406,-0.09920987486839294,0.01,0.0,0.0,0.0,0.01,0.0,0.0,0.0,0.01
1700026236.4941475,26775,1700026236,473699328,sensor_wgs84,0.6432711482048035,0.24645273387432098,0.282180517911911,0.6677106022834778,2.141258034866903e-06,0.0,0.0,0.0,2.2651032959771384e-06,0.0,0.0,0.0,6.0765545723331926e-05,-0.009579169563949108,-0.01858270913362503,-0.08373894542455673,0.01,0.0,0.0,0.0,0.01,0.0,0.0,0.0,0.01,0.07671356201171875,0.05141735076904297,-0.11724209785461426,0.01,0.0,0.0,0.0,0.01,0.0,0.0,0.0,0.01
1700026236.5023904,26776,1700026236,483713024,sensor_wgs84,0.6431823372840881,0.24662081897258759,0.2818186283111572,0.6678869724273682,2.141258034866903e-06,0.0,0.0,0.0,2.2651032959771384e-06,0.0,0.0,0.0,6.0765545723331926e-05,-0.0021145250648260117,-0.03525010868906975,-0.07836197316646576,0.01,0.0,0.0,0.0,0.01,0.0,0.0,0.0,0.01,0.05992487072944641,-0.011343002319335938,-0.10306727886199951,0.01,0.0,0.0,0.0,0.01,0.0,0.0,0.0,0.01
1700026236.512828,26777,1700026236,493727488,sensor_wgs84,0.6431413888931274,0.24675078690052032,0.281461626291275,0.6680288314819336,2.141258034866903e-06,0.0,0.0,0.0,2.2651032959771384e-06,0.0,0.0,0.0,6.0765545723331926e-05,0.0030095952097326517,-0.031470879912376404,-0.06792091578245163,0.01,0.0,0.0,0.0,0.01,0.0,0.0,0.0,0.01,0.016303449869155884,-0.08016490936279297,-0.0770697295665741,0.01,0.0,0.0,0.0,0.01,0.0,0.0,0.0,0.01
1700026236.52285,26778,1700026236,503745280,sensor_wgs84,0.6431341767311096,0.24684880673885345,0.28117284178733826,0.6681212782859802,2.141258034866903e-06,0.0,0.0,0.0,2.2651032959771384e-06,0.0,0.0,0.0,6.0765545723331926e-05,0.005934711545705795,-0.02199627459049225,-0.048186928033828735,0.01,0.0,0.0,0.0,0.01,0.0,0.0,0.0,0.01,-0.0015099644660949707,-0.03975200653076172,0.01544487476348877,0.01,0.0,0.0,0.0,0.01,0.0,0.0,0.0,0.01
1700026236.5407693,26779,1700026236,513759744,sensor_wgs84,0.6431421041488647,0.24694155156612396,0.28098124265670776,0.6681600213050842,2.1305665583249214e-06,0.0,0.0,0.0,2.254215664488813e-06,0.0,0.0,0.0,6.072287970074284e-05,0.01625685952603817,-0.006008186377584934,-0.03315535932779312,0.01,0.0,0.0,0.0,0.01,0.0,0.0,0.0,0.01,-0.022831588983535767,-0.0025453567504882812,0.12196475267410278,0.01,0.0,0.0,0.0,0.01,0.0,0.0,0.0,0.01
1700026236.542454,26780,1700026236,523774464,sensor_wgs84,0.6431399583816528,0.24707043170928955,0.280876100063324,0.6681585907936096,2.1305665583249214e-06,0.0,0.0,0.0,2.254215664488813e-06,0.0,0.0,0.0,6.072287970074284e-05,0.014498099684715271,0.013517733663320541,-0.025227166712284088,0.01,0.0,0.0,0.0,0.01,0.0,0.0,0.0,0.01,-0.03827580809593201,-0.020534515380859375,0.09270399808883667,0.01,0.0,0.0,0.0,0.01,0.0,0.0,0.0,0.01
1700026236.5586812,26781,1700026236,533798144,sensor_wgs84,0.6431277990341187,0.24722644686698914,0.280864417552948,0.6681174039840698,2.1305665583249214e-06,0.0,0.0,0.0,2.254215664488813e-06,0.0,0.0,0.0,6.072287970074284e-05,0.010808019898831844,0.02643112652003765,-0.013908605091273785,0.01,0.0,0.0,0.0,0.01,0.0,0.0,0.0,0.01,-0.037331461906433105,-0.05997467041015625,0.06807103753089905,0.01,0.0,0.0,0.0,0.01,0.0,0.0,0.0,0.01
1700026236.5608528,26782,1700026236,543812352,sensor_wgs84,0.6431105732917786,0.24738718569278717,0.28094127774238586,0.6680421829223633,2.1305665583249214e-06,0.0,0.0,0.0,2.254215664488813e-06,0.0,0.0,0.0,6.072287970074284e-05,0.01129955891519785,0.03998861461877823,-0.0013687044847756624,0.01,0.0,0.0,0.0,0.01,0.0,0.0,0.0,0.01,-0.01002773642539978,-0.04588603973388672,-0.006870776414871216,0.01,0.0,0.0,0.0,0.01,0.0,0.0,0.0,0.01
1700026236.5721023,26783,1700026236,553828864,sensor_wgs84,0.6430835723876953,0.24752925336360931,0.2810855209827423,0.6679549813270569,2.1305665583249214e-06,0.0,0.0,0.0,2.254215664488813e-06,0.0,0.0,0.0,6.072287970074284e-05,0.00270751747302711,0.04720674455165863,0.008503824472427368,0.01,0.0,0.0,0.0,0.01,0.0,0.0,0.0,0.01,0.003324538469314575,-0.011166572570800781,-0.08930212259292603,0.01,0.0,0.0,0.0,0.01,0.0,0.0,0.0,0.01
1700026236.583404,26784,1700026236,563846656,sensor_wgs84,0.6430540680885315,0.24763886630535126,0.2812633216381073,0.6678677797317505,2.1305665583249214e-06,0.0,0.0,0.0,2.254215664488813e-06,0.0,0.0,0.0,6.072287970074284e-05,0.005067153833806515,0.03926887735724449,0.018655212596058846,0.01,0.0,0.0,0.0,0.01,0.0,0.0,0.0,0.01,0.03693079948425293,0.03583717346191406,-0.1323390007019043,0.01,0.0,0.0,0.0,0.01,0.0,0.0,0.0,0.01
1700026236.5927243,26785,1700026236,573859840,sensor_wgs84,0.6430385112762451,0.2477068454027176,0.28144365549087524,0.6677815914154053,2.1305665583249214e-06,0.0,0.0,0.0,2.254215664488813e-06,0.0,0.0,0.0,6.072287970074284e-05,0.003431153716519475,0.02931194379925728,0.017943033948540688,0.01,0.0,0.0,0.0,0.01,0.0,0.0,0.0,0.01,0.05549316108226776,0.08609294891357422,-0.19501346349716187,0.01,0.0,0.0,0.0,0.01,0.0,0.0,0.0,0.01
1700026236.6057167,26786,1700026236,583879680,sensor_wgs84,0.6430250406265259,0.2477473020553589,0.2815949022769928,0.667715847492218,2.1305665583249214e-06,0.0,0.0,0.0,2.254215664488813e-06,0.0,0.0,0.0,6.072287970074284e-05,0.0011587545741349459,0.027862198650836945,0.020301369950175285,0.01,0.0,0.0,0.0,0.01,0.0,0.0,0.0,0.01,0.05619576573371887,0.10734844207763672,-0.22372591495513916,0.01,0.0,0.0,0.0,0.01,0.0,0.0,0.0,0.01
1700026236.6132083,26787,1700026236,593896448,sensor_wgs84,0.6431156992912292,0.24744229018688202,0.28139248490333557,0.6678270101547241,2.1305665583249214e-06,0.0,0.0,0.0,2.254215664488813e-06,0.0,0.0,0.0,6.072287970074284e-05,0.0029489374719560146,0.009765863418579102,0.017688464373350143,0.01,0.0,0.0,0.0,0.01,0.0,0.0,0.0,0.01,0.04728776216506958,0.09082603454589844,-0.2114488184452057,0.01,0.0,0.0,0.0,0.01,0.0,0.0,0.0,0.01
1700026236.6187093,26788,1700026236,603908864,sensor_wgs84,0.6431512832641602,0.24739642441272736,0.28149163722991943,0.6677678823471069,2.1305665583249214e-06,0.0,0.0,0.0,2.254215664488813e-06,0.0,0.0,0.0,6.072287970074284e-05,0.008640442974865437,0.0017638258868828416,0.026877721771597862,0.01,0.0,0.0,0.0,0.01,0.0,0.0,0.0,0.01,0.02964693307876587,0.10073089599609375,-0.20549127459526062,0.01,0.0,0.0,0.0,0.01,0.0,0.0,0.0,0.01
1700026236.6345513,26789,1700026236,613924096,sensor_wgs84,0.6432263851165771,0.2473071813583374,0.2815740406513214,0.6676937937736511,2.1305665583249214e-06,0.0,0.0,0.0,2.254215664488813e-06,0.0,0.0,0.0,6.072287970074284e-05,0.007828778587281704,-0.0007875789888203144,0.030363062396645546,0.01,0.0,0.0,0.0,0.01,0.0,0.0,0.0,0.01,-0.02160552144050598,0.08320808410644531,-0.22341859340667725,0.01,0.0,0.0,0.0,0.01,0.0,0.0,0.0,0.01
1700026236.646862,26790,1700026236,623946240,sensor_wgs84,0.6433253288269043,0.24720540642738342,0.28164786100387573,0.6676050424575806,2.1305665583249214e-06,0.0,0.0,0.0,2.254215664488813e-06,0.0,0.0,0.0,6.072287970074284e-05,0.016216445714235306,-0.005387917160987854,0.032119765877723694,0.01,0.0,0.0,0.0,0.01,0.0,0.0,0.0,0.01,-0.0795641839504242,0.08042716979980469,-0.13471075892448425,0.01,0.0,0.0,0.0,0.01,0.0,0.0,0.0,0.01
1700026236.6529825,26791,1700026236,633959936,sensor_wgs84,0.643430769443512,0.2471063882112503,0.28175416588783264,0.6674953103065491,2.1305665583249214e-06,0.0,0.0,0.0,2.254215664488813e-06,0.0,0.0,0.0,6.072287970074284e-05,0.01984347775578499,0.004067724570631981,0.03408246487379074,0.01,0.0,0.0,0.0,0.01,0.0,0.0,0.0,0.01,-0.13300791382789612,0.07581806182861328,-0.037287503480911255,0.01,0.0,0.0,0.0,0.01,0.0,0.0,0.0,0.01
1700026236.663017,26792,1700026236,643974400,sensor_wgs84,0.6435257196426392,0.2470829337835312,0.28190451860427856,0.6673489212989807,2.1305665583249214e-06,0.0,0.0,0.0,2.254215664488813e-06,0.0,0.0,0.0,6.072287970074284e-05,0.020006481558084488,0.02518155798316002,0.04257785528898239,0.01,0.0,0.0,0.0,0.01,0.0,0.0,0.0,0.01,-0.1706465780735016,0.005587577819824219,0.03986802697181702,0.01,0.0,0.0,0.0,0.01,0.0,0.0,0.0,0.01
1700026236.6728735,26793,1700026236,653991680,sensor_wgs84,0.6435927748680115,0.24709933996200562,0.282143771648407,0.6671770215034485,2.1305665583249214e-06,0.0,0.0,0.0,2.254215664488813e-06,0.0,0.0,0.0,6.072287970074284e-05,0.016128189861774445,0.049535397440195084,0.04616491496562958,0.01,0.0,0.0,0.0,0.01,0.0,0.0,0.0,0.01,-0.1812402904033661,-0.08608436584472656,0.07868561148643494,0.01,0.0,0.0,0.0,0.01,0.0,0.0,0.0,0.01
1700026236.6830502,26794,1700026236,664004608,sensor_wgs84,0.6436122059822083,0.24713723361492157,0.28248512744903564,0.6669997572898865,2.1305665583249214e-06,0.0,0.0,0.0,2.254215664488813e-06,0.0,0.0,0.0,6.072287970074284e-05,0.002455012872815132,0.06433714181184769,0.056558676064014435,0.01,0.0,0.0,0.0,0.01,0.0,0.0,0.0,0.01,-0.1866455376148224,-0.14576053619384766,0.12184235453605652,0.01,0.0,0.0,0.0,0.01,0.0,0.0,0.0,0.01
1700026236.6947517,26795,1700026236,674020096,sensor_wgs84,0.6435922384262085,0.247177392244339,0.28293073177337646,0.6668153405189514,2.1305665583249214e-06,0.0,0.0,0.0,2.254215664488813e-06,0.0,0.0,0.0,6.072287970074284e-05,-0.004099688027054071,0.07618565112352371,0.06890807300806046,0.01,0.0,0.0,0.0,0.01,0.0,0.0,0.0,0.01,-0.14818832278251648,-0.100250244140625,0.12178444862365723,0.01,0.0,0.0,0.0,0.01,0.0,0.0,0.0,0.01
1700026236.702403,26796,1700026236,684036352,sensor_wgs84,0.6435023546218872,0.24722985923290253,0.2834241986274719,0.6666730046272278,2.1305665583249214e-06,0.0,0.0,0.0,2.254215664488813e-06,0.0,0.0,0.0,6.072287970074284e-05,-0.022702649235725403,0.08768243342638016,0.05801159888505936,0.01,0.0,0.0,0.0,0.01,0.0,0.0,0.0,0.01,-0.11997199058532715,-0.02326202392578125,0.050380438566207886,0.01,0.0,0.0,0.0,0.01,0.0,0.0,0.0,0.01
1700026236.7129142,26797,1700026236,694049792,sensor_wgs84,0.6433336734771729,0.2473183274269104,0.283921480178833,0.666591465473175,2.1305665583249214e-06,0.0,0.0,0.0,2.254215664488813e-06,0.0,0.0,0.0,6.072287970074284e-05,-0.03925538808107376,0.09737022966146469,0.03865774720907211,0.01,0.0,0.0,0.0,0.01,0.0,0.0,0.0,0.01,-0.07701990008354187,-0.03251075744628906,0.0738581120967865,0.01,0.0,0.0,0.0,0.01,0.0,0.0,0.0,0.01
1700026236.7229974,26798,1700026236,704064512,sensor_wgs84,0.6430985331535339,0.2474798858165741,0.2844008803367615,0.6665539145469666,2.1305665583249214e-06,0.0,0.0,0.0,2.254215664488813e-06,0.0,0.0,0.0,6.072287970074284e-05,-0.042224954813718796,0.09989285469055176,0.021363677456974983,0.01,0.0,0.0,0.0,0.01,0.0,0.0,0.0,0.01,-0.10835632681846619,-0.019341468811035156,-0.0335368812084198,0.01,0.0,0.0,0.0,0.01,0.0,0.0,0.0,0.01
1700026236.738164,26799,1700026236,714087168,sensor_wgs84,0.6428219676017761,0.247653067111969,0.2847907543182373,0.6665899753570557,2.1226204638538296e-06,0.0,0.0,0.0,2.2435645517707007e-06,0.0,0.0,0.0,6.064960288244912e-05,-0.056568875908851624,0.08857244998216629,-0.002383269602432847,0.01,0.0,0.0,0.0,0.01,0.0,0.0,0.0,0.01,-0.041540175676345825,0.06848812103271484,0.01593157649040222,0.01,0.0,0.0,0.0,0.01,0.0,0.0,0.0,0.01
1700026236.7386012,26800,1700026236,724100608,sensor_wgs84,0.6425027251243591,0.24787293374538422,0.28507715463638306,0.6666935682296753,2.1226204638538296e-06,0.0,0.0,0.0,2.2435645517707007e-06,0.0,0.0,0.0,6.064960288244912e-05,-0.05363965034484863,0.0733032152056694,-0.019267799332737923,0.01,0.0,0.0,0.0,0.01,0.0,0.0,0.0,0.01,-0.018387287855148315,0.031630516052246094,0.013027042150497437,0.01,0.0,0.0,0.0,0.01,0.0,0.0,0.0,0.01
1700026236.749518,26801,1700026236,734115072,sensor_wgs84,0.6422047019004822,0.24808838963508606,0.28527817130088806,0.6668145060539246,2.1226204638538296e-06,0.0,0.0,0.0,2.2435645517707007e-06,0.0,0.0,0.0,6.064960288244912e-05,-0.04377376660704613,0.05679439753293991,-0.02628834918141365,0.01,0.0,0.0,0.0,0.01,0.0,0.0,0.0,0.01,0.002098292112350464,0.08312225341796875,-0.09773135185241699,0.01,0.0,0.0,0.0,0.01,0.0,0.0,0.0,0.01
1700026236.7620537,26802,1700026236,744131840,sensor_wgs84,0.6419945359230042,0.24828357994556427,0.28539392352104187,0.6668948531150818,2.1226204638538296e-06,0.0,0.0,0.0,2.2435645517707007e-06,0.0,0.0,0.0,6.064960288244912e-05,-0.017595170065760612,0.03976975008845329,-0.02306993119418621,0.01,0.0,0.0,0.0,0.01,0.0,0.0,0.0,0.01,-0.0019296109676361084,0.05867767333984375,-0.03415358066558838,0.01,0.0,0.0,0.0,0.01,0.0,0.0,0.0,0.01
1700026236.7678254,26803,1700026236,754144256,sensor_wgs84,0.6418997049331665,0.24843570590019226,0.28546738624572754,0.6668980121612549,2.1226204638538296e-06,0.0,0.0,0.0,2.2435645517707007e-06,0.0,0.0,0.0,6.064960288244912e-05,0.006499116774648428,0.027658024802803993,-0.006228786427527666,0.01,0.0,0.0,0.0,0.01,0.0,0.0,0.0,0.01,0.027961045503616333,0.052623748779296875,-0.048704445362091064,0.01,0.0,0.0,0.0,0.01,0.0,0.0,0.0,0.01
1700026236.7858768,26804,1700026236,764159232,sensor_wgs84,0.6419112682342529,0.24855703115463257,0.285510390996933,0.6668232083320618,2.1226204638538296e-06,0.0,0.0,0.0,2.2435645517707007e-06,0.0,0.0,0.0,6.064960288244912e-05,0.027333810925483704,0.020450197160243988,-0.00336588267236948,0.01,0.0,0.0,0.0,0.01,0.0,0.0,0.0,0.01,0.0030546486377716064,0.048770904541015625,-0.1277264952659607,0.01,0.0,0.0,0.0,0.01,0.0,0.0,0.0,0.01
1700026236.7944567,26805,1700026236,774177536,sensor_wgs84,0.6419994235038757,0.2486608773469925,0.28550252318382263,0.6667029857635498,2.1226204638538296e-06,0.0,0.0,0.0,2.2435645517707007e-06,0.0,0.0,0.0,6.064960288244912e-05,0.03494499996304512,0.00964752770960331,-0.0028237439692020416,0.01,0.0,0.0,0.0,0.01,0.0,0.0,0.0,0.01,-0.007725328207015991,0.06567668914794922,-0.004715621471405029,0.01,0.0,0.0,0.0,0.01,0.0,0.0,0.0,0.01
1700026236.8012133,26806,1700026236,784191232,sensor_wgs84,0.6421190500259399,0.24876350164413452,0.28544241189956665,0.6665752530097961,2.1226204638538296e-06,0.0,0.0,0.0,2.2435645517707007e-06,0.0,0.0,0.0,6.064960288244912e-05,0.04100855812430382,0.001726880087517202,-0.012268943712115288,0.01,0.0,0.0,0.0,0.01,0.0,0.0,0.0,0.01,-0.033874839544296265,0.07710933685302734,0.005504727363586426,0.01,0.0,0.0,0.0,0.01,0.0,0.0,0.0,0.01
1700026236.8108077,26807,1700026236,794206720,sensor_wgs84,0.6422314047813416,0.24891126155853271,0.2853051424026489,0.6664706468582153,2.1226204638538296e-06,0.0,0.0,0.0,2.2435645517707007e-06,0.0,0.0,0.0,6.064960288244912e-05,0.043495044112205505,0.0008005975978448987,-0.03949963301420212,0.01,0.0,0.0,0.0,0.01,0.0,0.0,0.0,0.01,-0.04025238752365112,0.16335201263427734,0.038101524114608765,0.01,0.0,0.0,0.0,0.01,0.0,0.0,0.0,0.01
1700026236.8280652,26808,1700026236,804228864,sensor_wgs84,0.6423026323318481,0.2491540014743805,0.2850658595561981,0.6664136052131653,2.1226204638538296e-06,0.0,0.0,0.0,2.2435645517707007e-06,0.0,0.0,0.0,6.064960288244912e-05,0.03749064356088638,0.002538025379180908,-0.07292830944061279,0.01,0.0,0.0,0.0,0.01,0.0,0.0,0.0,0.01,-0.06439486145973206,0.12982749938964844,0.05281636118888855,0.01,0.0,0.0,0.0,0.01,0.0,0.0,0.0,0.01
1700026236.8296053,26809,1700026236,814241792,sensor_wgs84,0.6422914862632751,0.24949957430362701,0.28472602367401123,0.6664404273033142,2.1226204638538296e-06,0.0,0.0,0.0,2.2435645517707007e-06,0.0,0.0,0.0,6.064960288244912e-05,0.030921684578061104,0.0005349154816940427,-0.1107172816991806,0.01,0.0,0.0,0.0,0.01,0.0,0.0,0.0,0.01,-0.05977112054824829,0.04842090606689453,0.08400750160217285,0.01,0.0,0.0,0.0,0.01,0.0,0.0,0.0,0.01
1700026236.8400302,26810,1700026236,824256000,sensor_wgs84,0.6422012448310852,0.2499362826347351,0.28431937098503113,0.6665372848510742,2.1226204638538296e-06,0.0,0.0,0.0,2.2435645517707007e-06,0.0,0.0,0.0,6.064960288244912e-05,0.013622636906802654,0.007409504149109125,-0.12671703100204468,0.01,0.0,0.0,0.0,0.01,0.0,0.0,0.0,0.01,-0.04832842946052551,-0.09725475311279297,0.06801536679267883,0.01,0.0,0.0,0.0,0.01,0.0,0.0,0.0,0.01
1700026236.8590422,26811,1700026236,834273280,sensor_wgs84,0.6420361399650574,0.2504372298717499,0.28389713168144226,0.6666882634162903,2.1226204638538296e-06,0.0,0.0,0.0,2.2435645517707007e-06,0.0,0.0,0.0,6.064960288244912e-05,0.001156516489572823,0.015124191530048847,-0.13817374408245087,0.01,0.0,0.0,0.0,0.01,0.0,0.0,0.0,0.01,0.007861137390136719,-0.18353748321533203,0.08245372772216797,0.01,0.0,0.0,0.0,0.01,0.0,0.0,0.0,0.01
1700026236.8592393,26812,1700026236,844284928,sensor_wgs84,0.6419360637664795,0.25061240792274475,0.28320690989494324,0.6670122742652893,2.1226204638538296e-06,0.0,0.0,0.0,2.2435645517707007e-06,0.0,0.0,0.0,6.064960288244912e-05,-0.011763624846935272,0.025092119351029396,-0.12967969477176666,0.01,0.0,0.0,0.0,0.01,0.0,0.0,0.0,0.01,0.07500369846820831,-0.2994403839111328,0.07950785756111145,0.01,0.0,0.0,0.0,0.01,0.0,0.0,0.0,0.01
1700026236.8698897,26813,1700026236,854299648,sensor_wgs84,0.6416817307472229,0.2510778307914734,0.2829354703426361,0.6671972274780273,2.1226204638538296e-06,0.0,0.0,0.0,2.2435645517707007e-06,0.0,0.0,0.0,6.064960288244912e-05,-0.025762826204299927,0.03440767154097557,-0.10633515566587448,0.01,0.0,0.0,0.0,0.01,0.0,0.0,0.0,0.01,0.10993646085262299,-0.3455533981323242,-0.01334717869758606,0.01,0.0,0.0,0.0,0.01,0.0,0.0,0.0,0.01
1700026236.8825176,26814,1700026236,864316160,sensor_wgs84,0.6414452791213989,0.2514297664165497,0.2827906310558319,0.6673534512519836,2.1226204638538296e-06,0.0,0.0,0.0,2.2435645517707007e-06,0.0,0.0,0.0,6.064960288244912e-05,-0.024935098364949226,0.03227638080716133,-0.06320817768573761,0.01,0.0,0.0,0.0,0.01,0.0,0.0,0.0,0.01,0.13480235636234283,-0.36023616790771484,-0.06545162200927734,0.01,0.0,0.0,0.0,0.01,0.0,0.0,0.0,0.01
1700026236.8890624,26815,1700026236,874329600,sensor_wgs84,0.6412766575813293,0.251634806394577,0.2827690541744232,0.6674472689628601,2.1226204638538296e-06,0.0,0.0,0.0,2.2435645517707007e-06,0.0,0.0,0.0,6.064960288244912e-05,-0.018010200932621956,0.02347727119922638,-0.02474590204656124,0.01,0.0,0.0,0.0,0.01,0.0,0.0,0.0,0.01,0.15281935036182404,-0.2892446517944336,-0.08125779032707214,0.01,0.0,0.0,0.0,0.01,0.0,0.0,0.0,0.01
1700026236.9011848,26816,1700026236,884344832,sensor_wgs84,0.6411709189414978,0.25171521306037903,0.28283312916755676,0.6674913763999939,2.1226204638538296e-06,0.0,0.0,0.0,2.2435645517707007e-06,0.0,0.0,0.0,6.064960288244912e-05,-0.015041468665003777,0.022186217829585075,0.003983644302934408,0.01,0.0,0.0,0.0,0.01,0.0,0.0,0.0,0.01,0.17070741951465607,-0.1621999740600586,-0.049512386322021484,0.01,0.0,0.0,0.0,0.01,0.0,0.0,0.0,0.01
1700026236.919287,26817,1700026236,894367744,sensor_wgs84,0.6411087512969971,0.2517288029193878,0.282939612865448,0.6675008535385132,2.1226204638538296e-06,0.0,0.0,0.0,2.2435645517707007e-06,0.0,0.0,0.0,6.064960288244912e-05,-0.017478790134191513,0.02442830428481102,0.010111154988408089,0.01,0.0,0.0,0.0,0.01,0.0,0.0,0.0,0.01,0.15948766469955444,-0.024183273315429688,0.02243661880493164,0.01,0.0,0.0,0.0,0.01,0.0,0.0,0.0,0.01
1700026236.9193714,26818,1700026236,904381184,sensor_wgs84,0.6410425305366516,0.25170907378196716,0.28305497765541077,0.6675230264663696,2.1226204638538296e-06,0.0,0.0,0.0,2.2435645517707007e-06,0.0,0.0,0.0,6.064960288244912e-05,-0.0210281889885664,0.008256982080638409,0.00972563587129116,0.01,0.0,0.0,0.0,0.01,0.0,0.0,0.0,0.01,0.12233681976795197,-0.03404521942138672,-0.06810736656188965,0.01,0.0,0.0,0.0,0.01,0.0,0.0,0.0,0.01
1700026236.9294217,26819,1700026236,914395392,sensor_wgs84,0.6409573554992676,0.2516399621963501,0.2831360399723053,0.6675965189933777,2.112866007223692e-06,0.0,0.0,0.0,2.233070873092487e-06,0.0,0.0,0.0,6.0600517664129725e-05,-0.03685293346643448,-0.0034936564043164253,0.012479007244110107,0.01,0.0,0.0,0.0,0.01,0.0,0.0,0.0,0.01,0.12915080785751343,-0.0803060531616211,-0.13719475269317627,0.01,0.0,0.0,0.0,0.01,0.0,0.0,0.0,0.01
1700026236.9420254,26820,1700026236,924411392,sensor_wgs84,0.6408690214157104,0.25149285793304443,0.28319603204727173,0.6677113175392151,2.112866007223692e-06,0.0,0.0,0.0,2.233070873092487e-06,0.0,0.0,0.0,6.0600517664129725e-05,-0.045408885926008224,-0.018533853814005852,0.014194730669260025,0.01,0.0,0.0,0.0,0.01,0.0,0.0,0.0,0.01,0.12517546117305756,-0.021076202392578125,-0.11408567428588867,0.01,0.0,0.0,0.0,0.01,0.0,0.0,0.0,0.01
1700026236.9496896,26821,1700026236,934424064,sensor_wgs84,0.6407822370529175,0.25128263235092163,0.28321295976638794,0.6678665280342102,2.112866007223692e-06,0.0,0.0,0.0,2.233070873092487e-06,0.0,0.0,0.0,6.0600517664129725e-05,-0.04522567614912987,-0.03643955662846565,0.013057444244623184,0.01,0.0,0.0,0.0,0.01,0.0,0.0,0.0,0.01,0.09735460579395294,0.050461769104003906,-0.13870280981063843,0.01,0.0,0.0,0.0,0.01,0.0,0.0,0.0,0.01
1700026236.9606485,26822,1700026236,944438528,sensor_wgs84,0.6406937837600708,0.2510552704334259,0.28318360447883606,0.6680492162704468,2.112866007223692e-06,0.0,0.0,0.0,2.233070873092487e-06,0.0,0.0,0.0,6.0600517664129725e-05,-0.04863520339131355,-0.043812964111566544,0.007682718802243471,0.01,0.0,0.0,0.0,0.01,0.0,0.0,0.0,0.01,0.06915195286273956,0.11625480651855469,-0.109164297580719,0.01,0.0,0.0,0.0,0.01,0.0,0.0,0.0,0.01
1700026236.9779847,26823,1700026236,954455040,sensor_wgs84,0.6406272649765015,0.2508341372013092,0.2831306457519531,0.6682186126708984,2.112866007223692e-06,0.0,0.0,0.0,2.233070873092487e-06,0.0,0.0,0.0,6.0600517664129725e-05,-0.03213806822896004,-0.03660644218325615,0.005555618088692427,0.01,0.0,0.0,0.0,0.01,0.0,0.0,0.0,0.01,0.041820228099823,0.1773357391357422,-0.005806624889373779,0.01,0.0,0.0,0.0,0.01,0.0,0.0,0.0,0.01
1700026236.97923,26824,1700026236,964466688,sensor_wgs84,0.6405844688415527,0.2506825029850006,0.28307345509529114,0.6683406829833984,2.112866007223692e-06,0.0,0.0,0.0,2.233070873092487e-06,0.0,0.0,0.0,6.0600517664129725e-05,-0.020162411034107208,-0.02087089978158474,-0.0008518004324287176,0.01,0.0,0.0,0.0,0.01,0.0,0.0,0.0,0.01,0.005238652229309082,0.22136974334716797,0.07646390795707703,0.01,0.0,0.0,0.0,0.01,0.0,0.0,0.0,0.01
1700026236.9897711,26825,1700026236,974479872,sensor_wgs84,0.6405540108680725,0.2506190538406372,0.28302279114723206,0.6684150695800781,2.112866007223692e-06,0.0,0.0,0.0,2.233070873092487e-06,0.0,0.0,0.0,6.0600517664129725e-05,-0.007788898888975382,-0.01235146913677454,-0.015594488009810448,0.01,0.0,0.0,0.0,0.01,0.0,0.0,0.0,0.01,0.010163813829421997,0.2199993133544922,0.026663899421691895,0.01,0.0,0.0,0.0,0.01,0.0,0.0,0.0,0.01
1700026237.0080955,26826,1700026236,984501248,sensor_wgs84,0.6405215859413147,0.25064024329185486,0.2829626202583313,0.6684638261795044,2.112866007223692e-06,0.0,0.0,0.0,2.233070873092487e-06,0.0,0.0,0.0,6.0600517664129725e-05,-0.008606625720858574,0.003093307139351964,-0.019158197566866875,0.01,0.0,0.0,0.0,0.01,0.0,0.0,0.0,0.01,0.037721678614616394,0.17905902862548828,-0.05612647533416748,0.01,0.0,0.0,0.0,0.01,0.0,0.0,0.0,0.01
1700026237.0145957,26827,1700026236,994514432,sensor_wgs84,0.6404792070388794,0.25071120262145996,0.28289175033569336,0.6685078144073486,2.112866007223692e-06,0.0,0.0,0.0,2.233070873092487e-06,0.0,0.0,0.0,6.0600517664129725e-05,0.0012372981291264296,0.0029637140687555075,-0.029692288488149643,0.01,0.0,0.0,0.0,0.01,0.0,0.0,0.0,0.01,0.0698973685503006,0.15714359283447266,-0.11279165744781494,0.01,0.0,0.0,0.0,0.01,0.0,0.0,0.0,0.01
1700026237.02234,26828,1700026237,4529408,sensor_wgs84,0.6404467225074768,0.25079894065856934,0.2827918827533722,0.6685481667518616,2.112866007223692e-06,0.0,0.0,0.0,2.233070873092487e-06,0.0,0.0,0.0,6.0600517664129725e-05,-0.0005210726521909237,-0.004320275969803333,-0.021572764962911606,0.01,0.0,0.0,0.0,0.01,0.0,0.0,0.0,0.01,0.09585803747177124,0.10771560668945312,-0.13457953929901123,0.01,0.0,0.0,0.0,0.01,0.0,0.0,0.0,0.01
1700026237.033112,26829,1700026237,14546432,sensor_wgs84,0.640451967716217,0.2508560121059418,0.28268173336982727,0.6685683131217957,2.112866007223692e-06,0.0,0.0,0.0,2.233070873092487e-06,0.0,0.0,0.0,6.0600517664129725e-05,0.01131218858063221,-0.014223559759557247,-0.014951531775295734,0.01,0.0,0.0,0.0,0.01,0.0,0.0,0.0,0.01,0.12016534805297852,0.05212688446044922,-0.1686612367630005,0.01,0.0,0.0,0.0,0.01,0.0,0.0,0.0,0.01
1700026237.039208,26830,1700026237,24558592,sensor_wgs84,0.6404992341995239,0.2508573830127716,0.2825673520565033,0.6685709357261658,2.112866007223692e-06,0.0,0.0,0.0,2.233070873092487e-06,0.0,0.0,0.0,6.0600517664129725e-05,0.008513649925589561,-0.01882052794098854,-0.012165169231593609,0.01,0.0,0.0,0.0,0.01,0.0,0.0,0.0,0.01,0.124502032995224,0.07603740692138672,-0.19649910926818848,0.01,0.0,0.0,0.0,0.01,0.0,0.0,0.0,0.01
1700026237.050494,26831,1700026237,34572800,sensor_wgs84,0.6405572295188904,0.25081145763397217,0.2824283540248871,0.6685912609100342,2.112866007223692e-06,0.0,0.0,0.0,2.233070873092487e-06,0.0,0.0,0.0,6.0600517664129725e-05,0.008572099730372429,-0.03620491921901703,-0.014636633917689323,0.01,0.0,0.0,0.0,0.01,0.0,0.0,0.0,0.01,0.10836327075958252,0.10992240905761719,-0.15010535717010498,0.01,0.0,0.0,0.0,0.01,0.0,0.0,0.0,0.01
1700026237.0624132,26832,1700026237,44588800,sensor_wgs84,0.6406222581863403,0.2507292628288269,0.2822593152523041,0.6686311364173889,2.112866007223692e-06,0.0,0.0,0.0,2.233070873092487e-06,0.0,0.0,0.0,6.0600517664129725e-05,0.00903182104229927,-0.04228915646672249,-0.010736403986811638,0.01,0.0,0.0,0.0,0.01,0.0,0.0,0.0,0.01,0.1009068489074707,0.06280899047851562,-0.12681478261947632,0.01,0.0,0.0,0.0,0.01,0.0,0.0,0.0,0.01
1700026237.0692368,26833,1700026237,54600448,sensor_wgs84,0.6406880617141724,0.25060585141181946,0.28208857774734497,0.66868656873703,2.112866007223692e-06,0.0,0.0,0.0,2.233070873092487e-06,0.0,0.0,0.0,6.0600517664129725e-05,0.002680807840079069,-0.04345006123185158,-0.005083831958472729,0.01,0.0,0.0,0.0,0.01,0.0,0.0,0.0,0.01,0.06913450360298157,0.049633026123046875,-0.16151458024978638,0.01,0.0,0.0,0.0,0.01,0.0,0.0,0.0,0.01
1700026237.088049,26834,1700026237,64615680,sensor_wgs84,0.6407743096351624,0.2504342198371887,0.2819342315196991,0.6687332391738892,2.112866007223692e-06,0.0,0.0,0.0,2.233070873092487e-06,0.0,0.0,0.0,6.0600517664129725e-05,0.007435513194650412,-0.05427458882331848,0.006131294649094343,0.01,0.0,0.0,0.0,0.01,0.0,0.0,0.0,0.01,0.02422855794429779,0.05190277099609375,-0.10811996459960938,0.01,0.0,0.0,0.0,0.01,0.0,0.0,0.0,0.01
1700026237.097802,26835,1700026237,74637056,sensor_wgs84,0.640900731086731,0.2502254247665405,0.2817746698856354,0.6687574982643127,2.112866007223692e-06,0.0,0.0,0.0,2.233070873092487e-06,0.0,0.0,0.0,6.0600517664129725e-05,0.018349722027778625,-0.05397119000554085,0.018010256811976433,0.01,0.0,0.0,0.0,0.01,0.0,0.0,0.0,0.01,-0.02899762988090515,0.04954051971435547,-0.047966837882995605,0.01,0.0,0.0,0.0,0.01,0.0,0.0,0.0,0.01
1700026237.104688,26836,1700026237,84655360,sensor_wgs84,0.6410655379295349,0.25000306963920593,0.2816387712955475,0.6687399744987488,2.112866007223692e-06,0.0,0.0,0.0,2.233070873092487e-06,0.0,0.0,0.0,6.0600517664129725e-05,0.02724502421915531,-0.05449262633919716,0.022461699321866035,0.01,0.0,0.0,0.0,0.01,0.0,0.0,0.0,0.01,-0.07597091794013977,0.043557167053222656,-0.01211458444595337,0.01,0.0,0.0,0.0,0.01,0.0,0.0,0.0,0.01
1700026237.1112094,26837,1700026237,94670336,sensor_wgs84,0.6413503289222717,0.24951212108135223,0.281180202960968,0.6688432693481445,2.112866007223692e-06,0.0,0.0,0.0,2.233070873092487e-06,0.0,0.0,0.0,6.0600517664129725e-05,0.03365306556224823,-0.039671190083026886,0.023826593533158302,0.01,0.0,0.0,0.0,0.01,0.0,0.0,0.0,0.01,-0.10310164093971252,0.01953601837158203,0.06029307842254639,0.01,0.0,0.0,0.0,0.01,0.0,0.0,0.0,0.01
1700026237.1208243,26838,1700026237,104685568,sensor_wgs84,0.6415402889251709,0.2493758499622345,0.28111058473587036,0.6687410473823547,2.1048695841050327e-06,0.0,0.0,0.0,2.2225268168833776e-06,0.0,0.0,0.0,6.053417653606799e-05,0.03363657742738724,-0.027725011110305786,0.021345878019928932,0.01,0.0,0.0,0.0,0.01,0.0,0.0,0.0,0.01,-0.10493093729019165,0.01847553253173828,0.08130621910095215,0.01,0.0,0.0,0.0,0.01,0.0,0.0,0.0,0.01
1700026237.1291745,26839,1700026237,114697216,sensor_wgs84,0.6416783332824707,0.2493104189634323,0.2810591459274292,0.6686546206474304,2.1048695841050327e-06,0.0,0.0,0.0,2.2225268168833776e-06,0.0,0.0,0.0,6.053417653606799e-05,0.024715151637792587,-0.013934220187366009,0.0038237832486629486,0.01,0.0,0.0,0.0,0.01,0.0,0.0,0.0,0.01,-0.11789727210998535,0.0036096572875976562,0.02514776587486267,0.01,0.0,0.0,0.0,0.01,0.0,0.0,0.0,0.01
1700026237.1495814,26840,1700026237,124712704,sensor_wgs84,0.6417518258094788,0.24930913746356964,0.2809956669807434,0.6686113476753235,2.1048695841050327e-06,0.0,0.0,0.0,2.2225268168833776e-06,0.0,0.0,0.0,6.053417653606799e-05,0.011755965650081635,-0.008049806579947472,-0.0023594368249177933,0.01,0.0,0.0,0.0,0.01,0.0,0.0,0.0,0.01,-0.09478360414505005,-0.03446769714355469,-0.021151959896087646,0.01,0.0,0.0,0.0,0.01,0.0,0.0,0.0,0.01
1700026237.152508,26841,1700026237,134729728,sensor_wgs84,0.6417784690856934,0.2493211030960083,0.28093454241752625,0.6686068773269653,2.1048695841050327e-06,0.0,0.0,0.0,2.2225268168833776e-06,0.0,0.0,0.0,6.053417653606799e-05,0.007522888481616974,-0.005497731268405914,-0.008327619172632694,0.01,0.0,0.0,0.0,0.01,0.0,0.0,0.0,0.01,-0.10225987434387207,-0.06904220581054688,-0.01005619764328003,0.01,0.0,0.0,0.0,0.01,0.0,0.0,0.0,0.01
1700026237.158652,26842,1700026237,144741632,sensor_wgs84,0.6417952179908752,0.24934419989585876,0.28087756037712097,0.668606162071228,2.1048695841050327e-06,0.0,0.0,0.0,2.2225268168833776e-06,0.0,0.0,0.0,6.053417653606799e-05,0.005403237883001566,-0.006256969645619392,-0.009569477289915085,0.01,0.0,0.0,0.0,0.01,0.0,0.0,0.0,0.01,-0.10641983151435852,-0.06049346923828125,-0.032647132873535156,0.01,0.0,0.0,0.0,0.01,0.0,0.0,0.0,0.01
1700026237.1705444,26843,1700026237,154755840,sensor_wgs84,0.6418249011039734,0.24937577545642853,0.2808150053024292,0.6685921549797058,2.1048695841050327e-06,0.0,0.0,0.0,2.2225268168833776e-06,0.0,0.0,0.0,6.053417653606799e-05,0.013924015685915947,-0.005689563229680061,-0.010380113497376442,0.01,0.0,0.0,0.0,0.01,0.0,0.0,0.0,0.01,-0.13406240940093994,-0.08721637725830078,-0.07999575138092041,0.01,0.0,0.0,0.0,0.01,0.0,0.0,0.0,0.01
1700026237.1885667,26844,1700026237,164776960,sensor_wgs84,0.6418676376342773,0.24941690266132355,0.2807527184486389,0.6685619950294495,2.1048695841050327e-06,0.0,0.0,0.0,2.2225268168833776e-06,0.0,0.0,0.0,6.053417653606799e-05,0.017454342916607857,-0.0007600104436278343,-0.012975760735571384,0.01,0.0,0.0,0.0,0.01,0.0,0.0,0.0,0.01,-0.16519853472709656,-0.07903385162353516,-0.07001662254333496,0.01,0.0,0.0,0.0,0.01,0.0,0.0,0.0,0.01
1700026237.1899745,26845,1700026237,174788864,sensor_wgs84,0.6419037580490112,0.24946486949920654,0.28068187832832336,0.6685391664505005,2.1048695841050327e-06,0.0,0.0,0.0,2.2225268168833776e-06,0.0,0.0,0.0,6.053417653606799e-05,0.013036704622209072,-0.005830682814121246,-0.018022118136286736,0.01,0.0,0.0,0.0,0.01,0.0,0.0,0.0,0.01,-0.16490015387535095,-0.030870437622070312,0.003210723400115967,0.01,0.0,0.0,0.0,0.01,0.0,0.0,0.0,0.01
1700026237.2082746,26846,1700026237,184803584,sensor_wgs84,0.6419254541397095,0.24955274164676666,0.2805912494659424,0.6685235500335693,2.1048695841050327e-06,0.0,0.0,0.0,2.2225268168833776e-06,0.0,0.0,0.0,6.053417653606799e-05,0.009733574464917183,0.00017056951764971018,-0.025089815258979797,0.01,0.0,0.0,0.0,0.01,0.0,0.0,0.0,0.01,-0.15487322211265564,-0.02117443084716797,0.052328526973724365,0.01,0.0,0.0,0.0,0.01,0.0,0.0,0.0,0.01
1700026237.213235,26847,1700026237,194820096,sensor_wgs84,0.6419028043746948,0.24969078600406647,0.2804900109767914,0.6685362458229065,2.1048695841050327e-06,0.0,0.0,0.0,2.2225268168833776e-06,0.0,0.0,0.0,6.053417653606799e-05,0.0016106689581647515,0.007512659300118685,-0.03944332152605057,0.01,0.0,0.0,0.0,0.01,0.0,0.0,0.0,0.01,-0.1390698254108429,-0.042227745056152344,0.0020295381546020508,0.01,0.0,0.0,0.0,0.01,0.0,0.0,0.0,0.01
1700026237.2190182,26848,1700026237,204831744,sensor_wgs84,0.6418329477310181,0.24985677003860474,0.28036487102508545,0.6685938239097595,2.1048695841050327e-06,0.0,0.0,0.0,2.2225268168833776e-06,0.0,0.0,0.0,6.053417653606799e-05,-0.006473758723586798,0.009883862920105457,-0.04650968685746193,0.01,0.0,0.0,0.0,0.01,0.0,0.0,0.0,0.01,-0.12308338284492493,-0.07390308380126953,0.0023940205574035645,0.01,0.0,0.0,0.0,0.01,0.0,0.0,0.0,0.01
1700026237.2316601,26849,1700026237,214846720,sensor_wgs84,0.6417213678359985,0.25002536177635193,0.28023001551628113,0.6686944961547852,2.1048695841050327e-06,0.0,0.0,0.0,2.2225268168833776e-06,0.0,0.0,0.0,6.053417653606799e-05,-0.014170019887387753,0.0076381447724998,-0.049818284809589386,0.01,0.0,0.0,0.0,0.01,0.0,0.0,0.0,0.01,-0.11096912622451782,-0.10515117645263672,0.0231286883354187,0.01,0.0,0.0,0.0,0.01,0.0,0.0,0.0,0.01
1700026237.2431858,26850,1700026237,224863488,sensor_wgs84,0.641596794128418,0.250166118144989,0.2801073491573334,0.6688127517700195,2.1048695841050327e-06,0.0,0.0,0.0,2.2225268168833776e-06,0.0,0.0,0.0,6.053417653606799e-05,-0.02033757045865059,0.006149145308881998,-0.04116981104016304,0.01,0.0,0.0,0.0,0.01,0.0,0.0,0.0,0.01,-0.08860641717910767,-0.11156272888183594,0.07049670815467834,0.01,0.0,0.0,0.0,0.01,0.0,0.0,0.0,0.01
1700026237.2489305,26851,1700026237,234875648,sensor_wgs84,0.6414639949798584,0.250293493270874,0.28002774715423584,0.6689257621765137,2.1048695841050327e-06,0.0,0.0,0.0,2.2225268168833776e-06,0.0,0.0,0.0,6.053417653606799e-05,-0.021453745663166046,0.01503446139395237,-0.03616590425372124,0.01,0.0,0.0,0.0,0.01,0.0,0.0,0.0,0.01,-0.0681510716676712,-0.07489967346191406,0.06526196002960205,0.01,0.0,0.0,0.0,0.01,0.0,0.0,0.0,0.01
1700026237.2644866,26852,1700026237,244889856,sensor_wgs84,0.6413359642028809,0.25040650367736816,0.2799859941005707,0.6690236926078796,2.1048695841050327e-06,0.0,0.0,0.0,2.2225268168833776e-06,0.0,0.0,0.0,6.053417653606799e-05,-0.019643433392047882,0.015243515372276306,-0.026868904009461403,0.01,0.0,0.0,0.0,0.01,0.0,0.0,0.0,0.01,-0.0644293874502182,-0.063995361328125,0.045750051736831665,0.01,0.0,0.0,0.0,0.01,0.0,0.0,0.0,0.01
1700026237.2723675,26853,1700026237,254905856,sensor_wgs84,0.6412378549575806,0.25048452615737915,0.27997422218322754,0.6690933704376221,2.1048695841050327e-06,0.0,0.0,0.0,2.2225268168833776e-06,0.0,0.0,0.0,6.053417653606799e-05,-0.017225464805960655,0.007127393502742052,-0.015652593225240707,0.01,0.0,0.0,0.0,0.01,0.0,0.0,0.0,0.01,-0.06049235165119171,-0.06343460083007812,0.038829296827316284,0.01,0.0,0.0,0.0,0.01,0.0,0.0,0.0,0.01
