Time,header.seq,header.stamp.secs,header.stamp.nsecs,header.frame_id,orientation.x,orientation.y,orientation.z,orientation.w,orientation_covariance_0,orientation_covariance_1,orientation_covariance_2,orientation_covariance_3,orientation_covariance_4,orientation_covariance_5,orientation_covariance_6,orientation_covariance_7,orientation_covariance_8,angular_velocity.x,angular_velocity.y,angular_velocity.z,angular_velocity_covariance_0,angular_velocity_covariance_1,angular_velocity_covariance_2,angular_velocity_covariance_3,angular_velocity_covariance_4,angular_velocity_covariance_5,angular_velocity_covariance_6,angular_velocity_covariance_7,angular_velocity_covariance_8,linear_acceleration.x,linear_acceleration.y,linear_acceleration.z,linear_acceleration_covariance_0,linear_acceleration_covariance_1,linear_acceleration_covariance_2,linear_acceleration_covariance_3,linear_acceleration_covariance_4,linear_acceleration_covariance_5,linear_acceleration_covariance_6,linear_acceleration_covariance_7,linear_acceleration_covariance_8
1700026355.8983693,38693,1700026355,814740224,sensor_wgs84,0.6673460006713867,0.16690845787525177,0.25167569518089294,0.6807718873023987,1.6800969517824423e-06,0.0,0.0,0.0,1.9525944722348365e-06,0.0,0.0,0.0,5.6068898801617814e-05,0.024418905377388,-0.1489890217781067,0.05837365984916687,0.01,0.0,0.0,0.0,0.01,0.0,0.0,0.0,0.01,-0.25422465801239014,0.15988445281982422,0.3437160849571228,0.01,0.0,0.0,0.0,0.01,0.0,0.0,0.0,0.01
1700026355.8984563,38694,1700026355,824756480,sensor_wgs84,0.6676011085510254,0.16637536883354187,0.25133827328681946,0.6807768940925598,1.6800969517824423e-06,0.0,0.0,0.0,1.9525944722348365e-06,0.0,0.0,0.0,5.6068898801617814e-05,0.017889300361275673,-0.11104477941989899,0.00732076819986105,0.01,0.0,0.0,0.0,0.01,0.0,0.0,0.0,0.01,-0.22657525539398193,0.07821083068847656,0.39676034450531006,0.01,0.0,0.0,0.0,0.01,0.0,0.0,0.0,0.01
1700026355.8984776,38695,1700026355,834772992,sensor_wgs84,0.6677568554878235,0.16611459851264954,0.250953733921051,0.680829644203186,1.6800969517824423e-06,0.0,0.0,0.0,1.9525944722348365e-06,0.0,0.0,0.0,5.6068898801617814e-05,0.008636577054858208,-0.071342334151268,-0.021896647289395332,0.01,0.0,0.0,0.0,0.01,0.0,0.0,0.0,0.01,-0.2516336441040039,-0.14158344268798828,0.31001541018486023,0.01,0.0,0.0,0.0,0.01,0.0,0.0,0.0,0.01
1700026355.898497,38696,1700026355,844785920,sensor_wgs84,0.6678835153579712,0.1657549887895584,0.25046801567077637,0.6809719204902649,1.6800969517824423e-06,0.0,0.0,0.0,1.9525944722348365e-06,0.0,0.0,0.0,5.6068898801617814e-05,-0.008734467439353466,-0.05393184348940849,-0.006432856898754835,0.01,0.0,0.0,0.0,0.01,0.0,0.0,0.0,0.01,-0.2799798250198364,-0.36168670654296875,0.05453488230705261,0.01,0.0,0.0,0.0,0.01,0.0,0.0,0.0,0.01
1700026355.8985517,38697,1700026355,854801152,sensor_wgs84,0.6679162979125977,0.16555429995059967,0.2503392696380615,0.6810358166694641,1.6800969517824423e-06,0.0,0.0,0.0,1.9525944722348365e-06,0.0,0.0,0.0,5.6068898801617814e-05,-0.01734050363302231,-0.04480944201350212,0.028446897864341736,0.01,0.0,0.0,0.0,0.01,0.0,0.0,0.0,0.01,-0.2754775285720825,-0.4821643829345703,-0.020665109157562256,0.01,0.0,0.0,0.0,0.01,0.0,0.0,0.0,0.01
1700026355.8985722,38698,1700026355,864819456,sensor_wgs84,0.6679484844207764,0.1652214080095291,0.2503882646560669,0.6810671091079712,1.6800969517824423e-06,0.0,0.0,0.0,1.9525944722348365e-06,0.0,0.0,0.0,5.6068898801617814e-05,-0.019484562799334526,-0.03911200538277626,0.06382431834936142,0.01,0.0,0.0,0.0,0.01,0.0,0.0,0.0,0.01,-0.24357497692108154,-0.2396106719970703,-0.008043289184570312,0.01,0.0,0.0,0.0,0.01,0.0,0.0,0.0,0.01
1700026355.8985913,38699,1700026355,874832896,sensor_wgs84,0.6679990887641907,0.16479402780532837,0.25051334500312805,0.6810751557350159,1.6768569705317982e-06,0.0,0.0,0.0,1.9439900977877376e-06,0.0,0.0,0.0,5.6072852939952934e-05,-0.01591305434703827,-0.045541223138570786,0.0823386013507843,0.01,0.0,0.0,0.0,0.01,0.0,0.0,0.0,0.01,-0.2132406234741211,-0.02847766876220703,0.06162247061729431,0.01,0.0,0.0,0.0,0.01,0.0,0.0,0.0,0.01
1700026355.901175,38700,1700026355,884848128,sensor_wgs84,0.6680889129638672,0.1643446981906891,0.25068071484565735,0.6810339093208313,1.6768569705317982e-06,0.0,0.0,0.0,1.9439900977877376e-06,0.0,0.0,0.0,5.6072852939952934e-05,-0.00625136774033308,-0.038148678839206696,0.08845385909080505,0.01,0.0,0.0,0.0,0.01,0.0,0.0,0.0,0.01,-0.19968771934509277,0.0914621353149414,0.17069202661514282,0.01,0.0,0.0,0.0,0.01,0.0,0.0,0.0,0.01
1700026355.9129908,38701,1700026355,894865408,sensor_wgs84,0.6681804060935974,0.1639549881219864,0.25086596608161926,0.6809698939323425,1.6768569705317982e-06,0.0,0.0,0.0,1.9439900977877376e-06,0.0,0.0,0.0,5.6072852939952934e-05,-0.004906999878585339,-0.023659173399209976,0.07968901097774506,0.01,0.0,0.0,0.0,0.01,0.0,0.0,0.0,0.01,-0.1302558183670044,0.22487258911132812,0.18564876914024353,0.01,0.0,0.0,0.0,0.01,0.0,0.0,0.0,0.01
1700026355.9204266,38702,1700026355,904879360,sensor_wgs84,0.6682336330413818,0.16365428268909454,0.2510679066181183,0.6809155941009521,1.6768569705317982e-06,0.0,0.0,0.0,1.9439900977877376e-06,0.0,0.0,0.0,5.6072852939952934e-05,-0.005621082149446011,-0.002082202350720763,0.06663011759519577,0.01,0.0,0.0,0.0,0.01,0.0,0.0,0.0,0.01,-0.05017125606536865,0.20593738555908203,0.1477072536945343,0.01,0.0,0.0,0.0,0.01,0.0,0.0,0.0,0.01
1700026355.936116,38703,1700026355,914895360,sensor_wgs84,0.6682485342025757,0.16343267261981964,0.2512914538383484,0.6808717846870422,1.6768569705317982e-06,0.0,0.0,0.0,1.9439900977877376e-06,0.0,0.0,0.0,5.6072852939952934e-05,-0.015786457806825638,0.0013531571021303535,0.062236007302999496,0.01,0.0,0.0,0.0,0.01,0.0,0.0,0.0,0.01,-0.011842012405395508,0.15063190460205078,-0.02777189016342163,0.01,0.0,0.0,0.0,0.01,0.0,0.0,0.0,0.01
1700026355.9432368,38704,1700026355,924911616,sensor_wgs84,0.6682355403900146,0.16323289275169373,0.2515358626842499,0.6808421611785889,1.6768569705317982e-06,0.0,0.0,0.0,1.9439900977877376e-06,0.0,0.0,0.0,5.6072852939952934e-05,-0.014430582523345947,0.004537605214864016,0.05654600262641907,0.01,0.0,0.0,0.0,0.01,0.0,0.0,0.0,0.01,0.07590258121490479,0.27301979064941406,-0.06735187768936157,0.01,0.0,0.0,0.0,0.01,0.0,0.0,0.0,0.01
1700026355.9487216,38705,1700026355,934924288,sensor_wgs84,0.6682132482528687,0.16306355595588684,0.2517455518245697,0.6808270812034607,1.6768569705317982e-06,0.0,0.0,0.0,1.9439900977877376e-06,0.0,0.0,0.0,5.6072852939952934e-05,-0.011806238442659378,0.005041613709181547,0.03928564488887787,0.01,0.0,0.0,0.0,0.01,0.0,0.0,0.0,0.01,0.16928696632385254,0.38994407653808594,0.05843383073806763,0.01,0.0,0.0,0.0,0.01,0.0,0.0,0.0,0.01
1700026355.9616659,38706,1700026355,944939264,sensor_wgs84,0.6682133078575134,0.16294457018375397,0.2518635392189026,0.6808118224143982,1.6768569705317982e-06,0.0,0.0,0.0,1.9439900977877376e-06,0.0,0.0,0.0,5.6072852939952934e-05,-0.005530145950615406,-0.003523140912875533,0.027845915406942368,0.01,0.0,0.0,0.0,0.01,0.0,0.0,0.0,0.01,0.1690225601196289,0.3246479034423828,-0.09673339128494263,0.01,0.0,0.0,0.0,0.01,0.0,0.0,0.0,0.01
1700026355.9738104,38707,1700026355,954957312,sensor_wgs84,0.6682392954826355,0.1627936065196991,0.25188225507736206,0.6808155179023743,1.6768569705317982e-06,0.0,0.0,0.0,1.9439900977877376e-06,0.0,0.0,0.0,5.6072852939952934e-05,-0.007607039995491505,-0.035035114735364914,0.021104339510202408,0.01,0.0,0.0,0.0,0.01,0.0,0.0,0.0,0.01,0.1679452657699585,0.3097095489501953,-0.16256994009017944,0.01,0.0,0.0,0.0,0.01,0.0,0.0,0.0,0.01
1700026355.9801745,38708,1700026355,964970752,sensor_wgs84,0.6682964563369751,0.16254206001758575,0.2517702281475067,0.6808609962463379,1.6768569705317982e-06,0.0,0.0,0.0,1.9439900977877376e-06,0.0,0.0,0.0,5.6072852939952934e-05,-0.008883985690772533,-0.06490083783864975,0.013345981016755104,0.01,0.0,0.0,0.0,0.01,0.0,0.0,0.0,0.01,0.15976840257644653,0.31568336486816406,-0.14559108018875122,0.01,0.0,0.0,0.0,0.01,0.0,0.0,0.0,0.01
1700026355.992544,38709,1700026355,974986240,sensor_wgs84,0.6683791875839233,0.1621880829334259,0.2515508830547333,0.6809453368186951,1.6768569705317982e-06,0.0,0.0,0.0,1.9439900977877376e-06,0.0,0.0,0.0,5.6072852939952934e-05,-0.012143945321440697,-0.10482493042945862,0.019384203478693962,0.01,0.0,0.0,0.0,0.01,0.0,0.0,0.0,0.01,0.10866105556488037,0.25673484802246094,-0.2085282802581787,0.01,0.0,0.0,0.0,0.01,0.0,0.0,0.0,0.01
1700026356.0030563,38710,1700026355,985003264,sensor_wgs84,0.6685308218002319,0.161673441529274,0.2512721121311188,0.6810217499732971,1.6768569705317982e-06,0.0,0.0,0.0,1.9439900977877376e-06,0.0,0.0,0.0,5.6072852939952934e-05,-0.0011960285482928157,-0.1314915120601654,0.048889972269535065,0.01,0.0,0.0,0.0,0.01,0.0,0.0,0.0,0.01,0.0202176570892334,0.1924600601196289,-0.1849726438522339,0.01,0.0,0.0,0.0,0.01,0.0,0.0,0.0,0.01
1700026356.0105,38711,1700026355,995017216,sensor_wgs84,0.6687607765197754,0.1609916239976883,0.2509728968143463,0.6810677647590637,1.6768569705317982e-06,0.0,0.0,0.0,1.9439900977877376e-06,0.0,0.0,0.0,5.6072852939952934e-05,0.0031396837439388037,-0.15403594076633453,0.05733206495642662,0.01,0.0,0.0,0.0,0.01,0.0,0.0,0.0,0.01,-0.05059611797332764,0.3939399719238281,-0.06216615438461304,0.01,0.0,0.0,0.0,0.01,0.0,0.0,0.0,0.01
1700026356.0227637,38712,1700026356,5032704,sensor_wgs84,0.6690437197685242,0.16027359664440155,0.25061485171318054,0.6810911893844604,1.6768569705317982e-06,0.0,0.0,0.0,1.9439900977877376e-06,0.0,0.0,0.0,5.6072852939952934e-05,0.013848239555954933,-0.16582544147968292,0.05206473544239998,0.01,0.0,0.0,0.0,0.01,0.0,0.0,0.0,0.01,-0.1534717082977295,0.45543384552001953,0.12461119890213013,0.01,0.0,0.0,0.0,0.01,0.0,0.0,0.0,0.01
1700026356.0338652,38713,1700026356,15048960,sensor_wgs84,0.669334352016449,0.15962786972522736,0.2502100169658661,0.6811060905456543,1.6768569705317982e-06,0.0,0.0,0.0,1.9439900977877376e-06,0.0,0.0,0.0,5.6072852939952934e-05,0.02184552699327469,-0.14617286622524261,0.02976229414343834,0.01,0.0,0.0,0.0,0.01,0.0,0.0,0.0,0.01,-0.20646929740905762,0.4689035415649414,0.2425662875175476,0.01,0.0,0.0,0.0,0.01,0.0,0.0,0.0,0.01
1700026356.0397959,38714,1700026356,25061888,sensor_wgs84,0.6695839166641235,0.15913836658000946,0.2497718185186386,0.6811361312866211,1.6768569705317982e-06,0.0,0.0,0.0,1.9439900977877376e-06,0.0,0.0,0.0,5.6072852939952934e-05,0.019242113456130028,-0.123442642390728,-0.002519052941352129,0.01,0.0,0.0,0.0,0.01,0.0,0.0,0.0,0.01,-0.27365028858184814,0.41065120697021484,0.3460314869880676,0.01,0.0,0.0,0.0,0.01,0.0,0.0,0.0,0.01
1700026356.0511787,38715,1700026356,35076608,sensor_wgs84,0.6697643995285034,0.15883566439151764,0.24933966994285583,0.681187629699707,1.6768569705317982e-06,0.0,0.0,0.0,1.9439900977877376e-06,0.0,0.0,0.0,5.6072852939952934e-05,0.01609361730515957,-0.09189379215240479,-0.02514222450554371,0.01,0.0,0.0,0.0,0.01,0.0,0.0,0.0,0.01,-0.2337641716003418,0.31172657012939453,0.44760680198669434,0.01,0.0,0.0,0.0,0.01,0.0,0.0,0.0,0.01
1700026356.0640466,38716,1700026356,45094400,sensor_wgs84,0.6698735952377319,0.15873487293720245,0.24897518754005432,0.6812370419502258,1.6768569705317982e-06,0.0,0.0,0.0,1.9439900977877376e-06,0.0,0.0,0.0,5.6072852939952934e-05,0.011140289716422558,-0.049002863466739655,-0.03971398249268532,0.01,0.0,0.0,0.0,0.01,0.0,0.0,0.0,0.01,-0.23079025745391846,0.23012638092041016,0.3419569432735443,0.01,0.0,0.0,0.0,0.01,0.0,0.0,0.0,0.01
1700026356.0691385,38717,1700026356,55107328,sensor_wgs84,0.6699373126029968,0.15878161787986755,0.24869370460510254,0.6812664270401001,1.6768569705317982e-06,0.0,0.0,0.0,1.9439900977877376e-06,0.0,0.0,0.0,5.6072852939952934e-05,0.01915508136153221,-0.019414715468883514,-0.04578690603375435,0.01,0.0,0.0,0.0,0.01,0.0,0.0,0.0,0.01,-0.18096923828125,0.10973548889160156,0.2805604338645935,0.01,0.0,0.0,0.0,0.01,0.0,0.0,0.0,0.01
1700026356.0819628,38718,1700026356,65122816,sensor_wgs84,0.6700119376182556,0.1589290350675583,0.24850037693977356,0.6812292337417603,1.6851835720334236e-06,0.0,0.0,0.0,1.9534557594320115e-06,0.0,0.0,0.0,5.614591450314233e-05,0.0372069887816906,0.0030170935206115246,-0.03526068478822708,0.01,0.0,0.0,0.0,0.01,0.0,0.0,0.0,0.01,-0.15219712257385254,-0.08017539978027344,0.07299843430519104,0.01,0.0,0.0,0.0,0.01,0.0,0.0,0.0,0.01
1700026356.0993545,38719,1700026356,75145984,sensor_wgs84,0.6700970530509949,0.15906880795955658,0.24839822947978973,0.6811501383781433,1.6851835720334236e-06,0.0,0.0,0.0,1.9534557594320115e-06,0.0,0.0,0.0,5.614591450314233e-05,0.033238641917705536,0.0041814157739281654,-0.01686849817633629,0.01,0.0,0.0,0.0,0.01,0.0,0.0,0.0,0.01,-0.10635888576507568,-0.12959575653076172,-0.18029743432998657,0.01,0.0,0.0,0.0,0.01,0.0,0.0,0.0,0.01
1700026356.1049414,38720,1700026356,85160704,sensor_wgs84,0.6702244281768799,0.1590884029865265,0.2483159750699997,0.6810502409934998,1.6851835720334236e-06,0.0,0.0,0.0,1.9534557594320115e-06,0.0,0.0,0.0,5.614591450314233e-05,0.027467405423521996,-0.015188006684184074,-0.01142102014273405,0.01,0.0,0.0,0.0,0.01,0.0,0.0,0.0,0.01,-0.09857690334320068,-0.1751413345336914,-0.24645650386810303,0.01,0.0,0.0,0.0,0.01,0.0,0.0,0.0,0.01
1700026356.1111102,38721,1700026356,95174912,sensor_wgs84,0.670378565788269,0.15886780619621277,0.24796679615974426,0.6810771226882935,1.6851835720334236e-06,0.0,0.0,0.0,1.9534557594320115e-06,0.0,0.0,0.0,5.614591450314233e-05,0.016857055947184563,-0.03348851576447487,-0.010063864290714264,0.01,0.0,0.0,0.0,0.01,0.0,0.0,0.0,0.01,-0.08300328254699707,-0.19973468780517578,-0.10155034065246582,0.01,0.0,0.0,0.0,0.01,0.0,0.0,0.0,0.01
1700026356.1240613,38722,1700026356,105192192,sensor_wgs84,0.6704633235931396,0.158780038356781,0.24778631329536438,0.6810799837112427,1.6851835720334236e-06,0.0,0.0,0.0,1.9534557594320115e-06,0.0,0.0,0.0,5.614591450314233e-05,0.009224816225469112,-0.04246697574853897,-0.009933359920978546,0.01,0.0,0.0,0.0,0.01,0.0,0.0,0.0,0.01,-0.07362675666809082,-0.17159748077392578,-0.028058290481567383,0.01,0.0,0.0,0.0,0.01,0.0,0.0,0.0,0.01
1700026356.135917,38723,1700026356,115211520,sensor_wgs84,0.6705101132392883,0.15865707397460938,0.2475857138633728,0.6811355352401733,1.6851835720334236e-06,0.0,0.0,0.0,1.9534557594320115e-06,0.0,0.0,0.0,5.614591450314233e-05,-0.007354504428803921,-0.050866082310676575,-0.00486804498359561,0.01,0.0,0.0,0.0,0.01,0.0,0.0,0.0,0.01,-0.12371385097503662,-0.1651477813720703,0.034691065549850464,0.01,0.0,0.0,0.0,0.01,0.0,0.0,0.0,0.01
1700026356.146829,38724,1700026356,125227520,sensor_wgs84,0.6705499887466431,0.1584785133600235,0.24737799167633057,0.6812132596969604,1.6851835720334236e-06,0.0,0.0,0.0,1.9534557594320115e-06,0.0,0.0,0.0,5.614591450314233e-05,-0.003825642168521881,-0.06425715237855911,0.0009193039732053876,0.01,0.0,0.0,0.0,0.01,0.0,0.0,0.0,0.01,-0.20559096336364746,-0.2015552520751953,0.10219451785087585,0.01,0.0,0.0,0.0,0.01,0.0,0.0,0.0,0.01
1700026356.1562793,38725,1700026356,135245056,sensor_wgs84,0.6706043481826782,0.15822668373584747,0.2471727430820465,0.6812927722930908,1.6851835720334236e-06,0.0,0.0,0.0,1.9534557594320115e-06,0.0,0.0,0.0,5.614591450314233e-05,-0.00831074919551611,-0.06647012382745743,0.006631556898355484,0.01,0.0,0.0,0.0,0.01,0.0,0.0,0.0,0.01,-0.24291646480560303,-0.14799785614013672,0.2569613456726074,0.01,0.0,0.0,0.0,0.01,0.0,0.0,0.0,0.01
1700026356.160282,38726,1700026356,145258240,sensor_wgs84,0.6706354022026062,0.1579849272966385,0.24700221419334412,0.6813802123069763,1.6851835720334236e-06,0.0,0.0,0.0,1.9534557594320115e-06,0.0,0.0,0.0,5.614591450314233e-05,-0.01857510581612587,-0.052904162555933,0.0032973522320389748,0.01,0.0,0.0,0.0,0.01,0.0,0.0,0.0,0.01,-0.32751643657684326,-0.07641410827636719,0.3626691401004791,0.01,0.0,0.0,0.0,0.01,0.0,0.0,0.0,0.01
1700026356.1710305,38727,1700026356,155273472,sensor_wgs84,0.670619547367096,0.15781694650650024,0.24686764180660248,0.6814833879470825,1.6851835720334236e-06,0.0,0.0,0.0,1.9534557594320115e-06,0.0,0.0,0.0,5.614591450314233e-05,-0.020812947303056717,-0.03495769947767258,-0.0091886967420578,0.01,0.0,0.0,0.0,0.01,0.0,0.0,0.0,0.01,-0.36902308464050293,-0.05507469177246094,0.5142203569412231,0.01,0.0,0.0,0.0,0.01,0.0,0.0,0.0,0.01
1700026356.1847038,38728,1700026356,165290496,sensor_wgs84,0.6705711483955383,0.15776532888412476,0.2468000203371048,0.6815674901008606,1.6851835720334236e-06,0.0,0.0,0.0,1.9534557594320115e-06,0.0,0.0,0.0,5.614591450314233e-05,-0.018502887338399887,-0.0020942934788763523,-0.00897936336696148,0.01,0.0,0.0,0.0,0.01,0.0,0.0,0.0,0.01,-0.43231451511383057,-0.17098522186279297,0.4878964126110077,0.01,0.0,0.0,0.0,0.01,0.0,0.0,0.0,0.01
1700026356.190955,38729,1700026356,175303680,sensor_wgs84,0.6704797744750977,0.15781573951244354,0.2468090057373047,0.6816425323486328,1.6851835720334236e-06,0.0,0.0,0.0,1.9534557594320115e-06,0.0,0.0,0.0,5.614591450314233e-05,-0.024234633892774582,0.01576842926442623,-0.01551220566034317,0.01,0.0,0.0,0.0,0.01,0.0,0.0,0.0,0.01,-0.4810997247695923,-0.18716144561767578,0.20767897367477417,0.01,0.0,0.0,0.0,0.01,0.0,0.0,0.0,0.01
1700026356.200211,38730,1700026356,185317632,sensor_wgs84,0.6703489422798157,0.15789839625358582,0.24683554470539093,0.6817423701286316,1.6851835720334236e-06,0.0,0.0,0.0,1.9534557594320115e-06,0.0,0.0,0.0,5.614591450314233e-05,-0.0349484384059906,0.020232370123267174,-0.01771198771893978,0.01,0.0,0.0,0.0,0.01,0.0,0.0,0.0,0.01,-0.47678065299987793,-0.22658443450927734,0.11145219206809998,0.01,0.0,0.0,0.0,0.01,0.0,0.0,0.0,0.01
1700026356.2161798,38731,1700026356,195333888,sensor_wgs84,0.6701861023902893,0.1579926609992981,0.2468867301940918,0.6818620562553406,1.6851835720334236e-06,0.0,0.0,0.0,1.9534557594320115e-06,0.0,0.0,0.0,5.614591450314233e-05,-0.03526095300912857,0.03486309200525284,-0.016217928379774094,0.01,0.0,0.0,0.0,0.01,0.0,0.0,0.0,0.01,-0.40936410427093506,-0.2037792205810547,0.13722822070121765,0.01,0.0,0.0,0.0,0.01,0.0,0.0,0.0,0.01
1700026356.2202442,38732,1700026356,205346560,sensor_wgs84,0.6699907779693604,0.158118337392807,0.24699288606643677,0.6819864511489868,1.6851835720334236e-06,0.0,0.0,0.0,1.9534557594320115e-06,0.0,0.0,0.0,5.614591450314233e-05,-0.04425728693604469,0.04202030599117279,-0.017253242433071136,0.01,0.0,0.0,0.0,0.01,0.0,0.0,0.0,0.01,-0.31052327156066895,-0.1208486557006836,0.0781407356262207,0.01,0.0,0.0,0.0,0.01,0.0,0.0,0.0,0.01
1700026356.230732,38733,1700026356,215361280,sensor_wgs84,0.6697723269462585,0.15828023850917816,0.24710404872894287,0.6821232438087463,1.6851835720334236e-06,0.0,0.0,0.0,1.9534557594320115e-06,0.0,0.0,0.0,5.614591450314233e-05,-0.047608550637960434,0.044705454260110855,-0.0261598639190197,0.01,0.0,0.0,0.0,0.01,0.0,0.0,0.0,0.01,-0.2334820032119751,-0.09980392456054688,0.011727094650268555,0.01,0.0,0.0,0.0,0.01,0.0,0.0,0.0,0.01
1700026356.243604,38734,1700026356,225378048,sensor_wgs84,0.6695505380630493,0.1584399938583374,0.24718840420246124,0.682273268699646,1.6851835720334236e-06,0.0,0.0,0.0,1.9534557594320115e-06,0.0,0.0,0.0,5.614591450314233e-05,-0.041198041290044785,0.03209463506937027,-0.023995934054255486,0.01,0.0,0.0,0.0,0.01,0.0,0.0,0.0,0.01,-0.1688094139099121,-0.06326484680175781,-0.06895452737808228,0.01,0.0,0.0,0.0,0.01,0.0,0.0,0.0,0.01
1700026356.2509477,38735,1700026356,235390208,sensor_wgs84,0.6693511605262756,0.15858593583106995,0.24721384048461914,0.6824257969856262,1.6851835720334236e-06,0.0,0.0,0.0,1.9534557594320115e-06,0.0,0.0,0.0,5.614591450314233e-05,-0.0389053076505661,0.021747158840298653,-0.03645256906747818,0.01,0.0,0.0,0.0,0.01,0.0,0.0,0.0,0.01,-0.1201474666595459,-0.05044746398925781,-0.10445833206176758,0.01,0.0,0.0,0.0,0.01,0.0,0.0,0.0,0.01
1700026356.260879,38736,1700026356,245404160,sensor_wgs84,0.6691623330116272,0.1587311029434204,0.24717772006988525,0.6825902462005615,1.6851835720334236e-06,0.0,0.0,0.0,1.9534557594320115e-06,0.0,0.0,0.0,5.614591450314233e-05,-0.0339418388903141,0.015250606462359428,-0.040640752762556076,0.01,0.0,0.0,0.0,0.01,0.0,0.0,0.0,0.01,-0.07023155689239502,-0.042397499084472656,-0.09110903739929199,0.01,0.0,0.0,0.0,0.01,0.0,0.0,0.0,0.01
1700026356.2729678,38737,1700026356,255420928,sensor_wgs84,0.6689596772193909,0.15890969336032867,0.24710184335708618,0.6827748417854309,1.6851835720334236e-06,0.0,0.0,0.0,1.9534557594320115e-06,0.0,0.0,0.0,5.614591450314233e-05,-0.04297017306089401,0.021565882489085197,-0.059038933366537094,0.01,0.0,0.0,0.0,0.01,0.0,0.0,0.0,0.01,-0.022975444793701172,-0.030287742614746094,-0.021554291248321533,0.01,0.0,0.0,0.0,0.01,0.0,0.0,0.0,0.01
1700026356.2798374,38738,1700026356,265434112,sensor_wgs84,0.6687262058258057,0.15911848843097687,0.24702443182468414,0.6829829216003418,1.675457696880911e-06,0.0,0.0,0.0,1.944978068985659e-06,0.0,0.0,0.0,5.607366889061349e-05,-0.05328800529241562,0.027636779472231865,-0.06138787418603897,0.01,0.0,0.0,0.0,0.01,0.0,0.0,0.0,0.01,-0.022223949432373047,-0.03596687316894531,-0.04565393924713135,0.01,0.0,0.0,0.0,0.01,0.0,0.0,0.0,0.01
1700026356.2924354,38739,1700026356,275449344,sensor_wgs84,0.6684695482254028,0.15933138132095337,0.2469666749238968,0.6832053065299988,1.675457696880911e-06,0.0,0.0,0.0,1.944978068985659e-06,0.0,0.0,0.0,5.607366889061349e-05,-0.053350869566202164,0.027144834399223328,-0.05007198452949524,0.01,0.0,0.0,0.0,0.01,0.0,0.0,0.0,0.01,0.002784252166748047,-0.033631324768066406,-0.09312570095062256,0.01,0.0,0.0,0.0,0.01,0.0,0.0,0.0,0.01
1700026356.3044887,38740,1700026356,285466624,sensor_wgs84,0.6682339906692505,0.15952816605567932,0.2469417005777359,0.6833988428115845,1.675457696880911e-06,0.0,0.0,0.0,1.944978068985659e-06,0.0,0.0,0.0,5.607366889061349e-05,-0.046829916536808014,0.02327718585729599,-0.0363919734954834,0.01,0.0,0.0,0.0,0.01,0.0,0.0,0.0,0.01,-0.0047141313552856445,-0.09534835815429688,-0.11024701595306396,0.01,0.0,0.0,0.0,0.01,0.0,0.0,0.0,0.01
1700026356.3099473,38741,1700026356,295479296,sensor_wgs84,0.6680440306663513,0.15965035557746887,0.24696333706378937,0.6835482120513916,1.675457696880911e-06,0.0,0.0,0.0,1.944978068985659e-06,0.0,0.0,0.0,5.607366889061349e-05,-0.0344717763364315,0.017605870962142944,-0.018361510708928108,0.01,0.0,0.0,0.0,0.01,0.0,0.0,0.0,0.01,0.02071666717529297,-0.05441093444824219,-0.03900212049484253,0.01,0.0,0.0,0.0,0.01,0.0,0.0,0.0,0.01
1700026356.3230653,38742,1700026356,305494016,sensor_wgs84,0.6678906679153442,0.1597183793783188,0.2470279335975647,0.6836588382720947,1.675457696880911e-06,0.0,0.0,0.0,1.944978068985659e-06,0.0,0.0,0.0,5.607366889061349e-05,-0.03375966474413872,0.021209364756941795,-0.004754102788865566,0.01,0.0,0.0,0.0,0.01,0.0,0.0,0.0,0.01,0.05145537853240967,0.028038978576660156,0.00997859239578247,0.01,0.0,0.0,0.0,0.01,0.0,0.0,0.0,0.01
1700026356.3328521,38743,1700026356,315510528,sensor_wgs84,0.6677287817001343,0.15977059304714203,0.24714241921901703,0.683763325214386,1.675457696880911e-06,0.0,0.0,0.0,1.944978068985659e-06,0.0,0.0,0.0,5.607366889061349e-05,-0.04185523837804794,0.029763538390398026,-0.0010831556282937527,0.01,0.0,0.0,0.0,0.01,0.0,0.0,0.0,0.01,0.089377760887146,0.1303730010986328,0.0729973316192627,0.01,0.0,0.0,0.0,0.01,0.0,0.0,0.0,0.01
1700026356.3385596,38744,1700026356,325522432,sensor_wgs84,0.6675315499305725,0.1598413735628128,0.24726328253746033,0.6838957071304321,1.675457696880911e-06,0.0,0.0,0.0,1.944978068985659e-06,0.0,0.0,0.0,5.607366889061349e-05,-0.046434663236141205,0.03661254048347473,-0.006483595352619886,0.01,0.0,0.0,0.0,0.01,0.0,0.0,0.0,0.01,0.07862544059753418,0.10817527770996094,0.08719316124916077,0.01,0.0,0.0,0.0,0.01,0.0,0.0,0.0,0.01
1700026356.3510516,38745,1700026356,335536128,sensor_wgs84,0.6673473119735718,0.1598597764968872,0.24742621183395386,0.6840122938156128,1.675457696880911e-06,0.0,0.0,0.0,1.944978068985659e-06,0.0,0.0,0.0,5.607366889061349e-05,-0.048835791647434235,0.03559441491961479,-0.004920839797705412,0.01,0.0,0.0,0.0,0.01,0.0,0.0,0.0,0.01,0.10342323780059814,0.1330547332763672,0.0928773283958435,0.01,0.0,0.0,0.0,0.01,0.0,0.0,0.0,0.01
1700026356.3639529,38746,1700026356,345551872,sensor_wgs84,0.6671781539916992,0.15976957976818085,0.2473786175251007,0.6842154860496521,1.675457696880911e-06,0.0,0.0,0.0,1.944978068985659e-06,0.0,0.0,0.0,5.607366889061349e-05,-0.04973474144935608,0.0437425896525383,-0.002843495225533843,0.01,0.0,0.0,0.0,0.01,0.0,0.0,0.0,0.01,0.08219623565673828,0.11388683319091797,0.05737584829330444,0.01,0.0,0.0,0.0,0.01,0.0,0.0,0.0,0.01
1700026356.3738835,38747,1700026356,355564288,sensor_wgs84,0.6669549345970154,0.15989068150520325,0.24755430221557617,0.684341311454773,1.675457696880911e-06,0.0,0.0,0.0,1.944978068985659e-06,0.0,0.0,0.0,5.607366889061349e-05,-0.042919132858514786,0.0470648892223835,-0.009183036163449287,0.01,0.0,0.0,0.0,0.01,0.0,0.0,0.0,0.01,0.07556748390197754,0.15285778045654297,0.023536384105682373,0.01,0.0,0.0,0.0,0.01,0.0,0.0,0.0,0.01
1700026356.3827147,38748,1700026356,365579776,sensor_wgs84,0.6667559146881104,0.16003915667533875,0.2476906031370163,0.6844512224197388,1.675457696880911e-06,0.0,0.0,0.0,1.944978068985659e-06,0.0,0.0,0.0,5.607366889061349e-05,-0.03742485120892525,0.045068129897117615,-0.02651778981089592,0.01,0.0,0.0,0.0,0.01,0.0,0.0,0.0,0.01,0.07319104671478271,0.18897247314453125,0.05209708213806152,0.01,0.0,0.0,0.0,0.01,0.0,0.0,0.0,0.01
1700026356.39471,38749,1700026356,375597056,sensor_wgs84,0.6665471792221069,0.1602483093738556,0.24776765704154968,0.6845777034759521,1.675457696880911e-06,0.0,0.0,0.0,1.944978068985659e-06,0.0,0.0,0.0,5.607366889061349e-05,-0.039754875004291534,0.047119248658418655,-0.038955722004175186,0.01,0.0,0.0,0.0,0.01,0.0,0.0,0.0,0.01,0.08140957355499268,0.14828014373779297,0.08711087703704834,0.01,0.0,0.0,0.0,0.01,0.0,0.0,0.0,0.01
1700026356.4037762,38750,1700026356,385608704,sensor_wgs84,0.666324257850647,0.16052250564098358,0.24780018627643585,0.6847186088562012,1.675457696880911e-06,0.0,0.0,0.0,1.944978068985659e-06,0.0,0.0,0.0,5.607366889061349e-05,-0.03819127753376961,0.050690602511167526,-0.05809194967150688,0.01,0.0,0.0,0.0,0.01,0.0,0.0,0.0,0.01,0.10819178819656372,0.10458946228027344,0.0241507887840271,0.01,0.0,0.0,0.0,0.01,0.0,0.0,0.0,0.01
1700026356.4137535,38751,1700026356,395623424,sensor_wgs84,0.6661102771759033,0.16081355512142181,0.2477630078792572,0.6848719716072083,1.675457696880911e-06,0.0,0.0,0.0,1.944978068985659e-06,0.0,0.0,0.0,5.607366889061349e-05,-0.028290819376707077,0.036257367581129074,-0.060869667679071426,0.01,0.0,0.0,0.0,0.01,0.0,0.0,0.0,0.01,0.09780830144882202,0.03319072723388672,0.03640705347061157,0.01,0.0,0.0,0.0,0.01,0.0,0.0,0.0,0.01
1700026356.425169,38752,1700026356,405640448,sensor_wgs84,0.6659486293792725,0.16108058393001556,0.24765121936798096,0.685006856918335,1.675457696880911e-06,0.0,0.0,0.0,1.944978068985659e-06,0.0,0.0,0.0,5.607366889061349e-05,-0.013578003272414207,0.016165360808372498,-0.06411691009998322,0.01,0.0,0.0,0.0,0.01,0.0,0.0,0.0,0.01,0.11085325479507446,0.004596710205078125,-7.987022399902344e-05,0.01,0.0,0.0,0.0,0.01,0.0,0.0,0.0,0.01
1700026356.4326832,38753,1700026356,415653632,sensor_wgs84,0.6658153533935547,0.16131354868412018,0.2474474012851715,0.6851552724838257,1.675457696880911e-06,0.0,0.0,0.0,1.944978068985659e-06,0.0,0.0,0.0,5.607366889061349e-05,-0.02396898902952671,-0.003907989710569382,-0.07698706537485123,0.01,0.0,0.0,0.0,0.01,0.0,0.0,0.0,0.01,0.13103389739990234,0.021401405334472656,0.007950127124786377,0.01,0.0,0.0,0.0,0.01,0.0,0.0,0.0,0.01
1700026356.4433029,38754,1700026356,425668864,sensor_wgs84,0.6656696796417236,0.16152378916740417,0.24713115394115448,0.685361385345459,1.675457696880911e-06,0.0,0.0,0.0,1.944978068985659e-06,0.0,0.0,0.0,5.607366889061349e-05,-0.03640338033437729,-0.02167237363755703,-0.0943835973739624,0.01,0.0,0.0,0.0,0.01,0.0,0.0,0.0,0.01,0.12951576709747314,0.011138916015625,0.0640329122543335,0.01,0.0,0.0,0.0,0.01,0.0,0.0,0.0,0.01
1700026356.459938,38755,1700026356,435691264,sensor_wgs84,0.6654965877532959,0.1617075651884079,0.24671505391597748,0.685636043548584,1.675457696880911e-06,0.0,0.0,0.0,1.944978068985659e-06,0.0,0.0,0.0,5.607366889061349e-05,-0.0404772013425827,-0.03610379993915558,-0.10894989222288132,0.01,0.0,0.0,0.0,0.01,0.0,0.0,0.0,0.01,0.12060689926147461,-0.06656169891357422,0.09426724910736084,0.01,0.0,0.0,0.0,0.01,0.0,0.0,0.0,0.01
1700026356.46291,38756,1700026356,445704448,sensor_wgs84,0.6653137803077698,0.16187413036823273,0.24626325070858002,0.6859365105628967,1.675457696880911e-06,0.0,0.0,0.0,1.944978068985659e-06,0.0,0.0,0.0,5.607366889061349e-05,-0.04057888314127922,-0.038544684648513794,-0.10174363106489182,0.01,0.0,0.0,0.0,0.01,0.0,0.0,0.0,0.01,0.13103526830673218,-0.12433433532714844,0.12891462445259094,0.01,0.0,0.0,0.0,0.01,0.0,0.0,0.0,0.01
1700026356.471151,38757,1700026356,455718912,sensor_wgs84,0.6651377081871033,0.1620071828365326,0.24583134055137634,0.6862306594848633,1.675457696880911e-06,0.0,0.0,0.0,1.944978068985659e-06,0.0,0.0,0.0,5.607366889061349e-05,-0.041867803782224655,-0.03685736656188965,-0.09795249253511429,0.01,0.0,0.0,0.0,0.01,0.0,0.0,0.0,0.01,0.12878835201263428,-0.05755138397216797,0.08937335014343262,0.01,0.0,0.0,0.0,0.01,0.0,0.0,0.0,0.01
1700026356.4829185,38758,1700026356,465735168,sensor_wgs84,0.6649766564369202,0.1621277779340744,0.2454090416431427,0.6865093111991882,1.6638478272969215e-06,0.0,0.0,0.0,1.9368982423023325e-06,0.0,0.0,0.0,5.598165733428084e-05,-0.03237305209040642,-0.046045683324337006,-0.08985165506601334,0.01,0.0,0.0,0.0,0.01,0.0,0.0,0.0,0.01,0.12234193086624146,-0.0702981948852539,0.0722314715385437,0.01,0.0,0.0,0.0,0.01,0.0,0.0,0.0,0.01
1700026356.48846,38759,1700026356,475746816,sensor_wgs84,0.664865255355835,0.1622070074081421,0.24500037729740143,0.6867445111274719,1.6638478272969215e-06,0.0,0.0,0.0,1.9368982423023325e-06,0.0,0.0,0.0,5.598165733428084e-05,-0.026874057948589325,-0.04941798374056816,-0.07244289666414261,0.01,0.0,0.0,0.0,0.01,0.0,0.0,0.0,0.01,0.08628058433532715,-0.12262916564941406,-0.03914862871170044,0.01,0.0,0.0,0.0,0.01,0.0,0.0,0.0,0.01
1700026356.5009947,38760,1700026356,485760512,sensor_wgs84,0.664803683757782,0.16223318874835968,0.24460579454898834,0.6869385838508606,1.6638478272969215e-06,0.0,0.0,0.0,1.9368982423023325e-06,0.0,0.0,0.0,5.598165733428084e-05,-0.016649508848786354,-0.061541445553302765,-0.062465768307447433,0.01,0.0,0.0,0.0,0.01,0.0,0.0,0.0,0.01,0.06366223096847534,-0.044243812561035156,-0.04041963815689087,0.01,0.0,0.0,0.0,0.01,0.0,0.0,0.0,0.01
1700026356.5130625,38761,1700026356,495775744,sensor_wgs84,0.664789080619812,0.16221973299980164,0.2442045658826828,0.6870985627174377,1.6638478272969215e-06,0.0,0.0,0.0,1.9368982423023325e-06,0.0,0.0,0.0,5.598165733428084e-05,-0.006355029530823231,-0.06026599928736687,-0.059304140508174896,0.01,0.0,0.0,0.0,0.01,0.0,0.0,0.0,0.01,0.06886827945709229,-0.031432151794433594,0.11176490783691406,0.01,0.0,0.0,0.0,0.01,0.0,0.0,0.0,0.01
1700026356.523185,38762,1700026356,505789440,sensor_wgs84,0.6647830009460449,0.1621980518102646,0.24383839964866638,0.6872395873069763,1.6638478272969215e-06,0.0,0.0,0.0,1.9368982423023325e-06,0.0,0.0,0.0,5.598165733428084e-05,-0.010206041857600212,-0.05253619700670242,-0.052738212049007416,0.01,0.0,0.0,0.0,0.01,0.0,0.0,0.0,0.01,0.06051516532897949,-0.06734657287597656,0.14647021889686584,0.01,0.0,0.0,0.0,0.01,0.0,0.0,0.0,0.01
1700026356.5320334,38763,1700026356,515804416,sensor_wgs84,0.6647685766220093,0.16216957569122314,0.243535578250885,0.6873676776885986,1.6638478272969215e-06,0.0,0.0,0.0,1.9368982423023325e-06,0.0,0.0,0.0,5.598165733428084e-05,-0.013103852048516273,-0.04168658331036568,-0.03968271240592003,0.01,0.0,0.0,0.0,0.01,0.0,0.0,0.0,0.01,0.06316167116165161,-0.024773597717285156,0.17739200592041016,0.01,0.0,0.0,0.0,0.01,0.0,0.0,0.0,0.01
1700026356.5497243,38764,1700026356,525826560,sensor_wgs84,0.6647288799285889,0.1621365249156952,0.2433032989501953,0.6874961256980896,1.6638478272969215e-06,0.0,0.0,0.0,1.9368982423023325e-06,0.0,0.0,0.0,5.598165733428084e-05,-0.01895015873014927,-0.034033142030239105,-0.03323111683130264,0.01,0.0,0.0,0.0,0.01,0.0,0.0,0.0,0.01,0.03634977340698242,-0.026006698608398438,0.1492432951927185,0.01,0.0,0.0,0.0,0.01,0.0,0.0,0.0,0.01
1700026356.5515823,38765,1700026356,535839488,sensor_wgs84,0.6646535992622375,0.16210632026195526,0.24311183393001556,0.6876436471939087,1.6638478272969215e-06,0.0,0.0,0.0,1.9368982423023325e-06,0.0,0.0,0.0,5.598165733428084e-05,-0.0373941995203495,-0.028766419738531113,-0.03383883088827133,0.01,0.0,0.0,0.0,0.01,0.0,0.0,0.0,0.01,0.01761072874069214,0.038028717041015625,0.07877606153488159,0.01,0.0,0.0,0.0,0.01,0.0,0.0,0.0,0.01
1700026356.5621436,38766,1700026356,545854208,sensor_wgs84,0.6645290851593018,0.1621028631925583,0.24291475117206573,0.6878343820571899,1.6638478272969215e-06,0.0,0.0,0.0,1.9368982423023325e-06,0.0,0.0,0.0,5.598165733428084e-05,-0.03899407759308815,-0.026514748111367226,-0.0461505725979805,0.01,0.0,0.0,0.0,0.01,0.0,0.0,0.0,0.01,0.025378525257110596,0.1340961456298828,0.07377326488494873,0.01,0.0,0.0,0.0,0.01,0.0,0.0,0.0,0.01
1700026356.5739212,38767,1700026356,555870976,sensor_wgs84,0.6643543839454651,0.16212427616119385,0.24269963800907135,0.6880740523338318,1.6638478272969215e-06,0.0,0.0,0.0,1.9368982423023325e-06,0.0,0.0,0.0,5.598165733428084e-05,-0.050704024732112885,-0.025230761617422104,-0.04725375398993492,0.01,0.0,0.0,0.0,0.01,0.0,0.0,0.0,0.01,0.016791582107543945,0.08210563659667969,0.0017569661140441895,0.01,0.0,0.0,0.0,0.01,0.0,0.0,0.0,0.01
1700026356.5868807,38768,1700026356,565887744,sensor_wgs84,0.6641966700553894,0.16213178634643555,0.24248193204402924,0.6883013248443604,1.6638478272969215e-06,0.0,0.0,0.0,1.9368982423023325e-06,0.0,0.0,0.0,5.598165733428084e-05,-0.04610240459442139,-0.029191602021455765,-0.04706636443734169,0.01,0.0,0.0,0.0,0.01,0.0,0.0,0.0,0.01,-0.023085832595825195,0.005190849304199219,-0.09285551309585571,0.01,0.0,0.0,0.0,0.01,0.0,0.0,0.0,0.01
1700026356.591643,38769,1700026356,575902464,sensor_wgs84,0.6640734672546387,0.16209279000759125,0.24231572449207306,0.6884878873825073,1.6638478272969215e-06,0.0,0.0,0.0,1.9368982423023325e-06,0.0,0.0,0.0,5.598165733428084e-05,-0.0296573918312788,-0.031273435801267624,-0.023709312081336975,0.01,0.0,0.0,0.0,0.01,0.0,0.0,0.0,0.01,0.0005642175674438477,0.052840232849121094,-0.04402393102645874,0.01,0.0,0.0,0.0,0.01,0.0,0.0,0.0,0.01
1700026356.603967,38770,1700026356,585919232,sensor_wgs84,0.6639955639839172,0.16204798221588135,0.2421548068523407,0.6886301040649414,1.6638478272969215e-06,0.0,0.0,0.0,1.9368982423023325e-06,0.0,0.0,0.0,5.598165733428084e-05,-0.027502918615937233,-0.018729131668806076,-0.010510420426726341,0.01,0.0,0.0,0.0,0.01,0.0,0.0,0.0,0.01,0.021675467491149902,0.16167068481445312,0.0425223708152771,0.01,0.0,0.0,0.0,0.01,0.0,0.0,0.0,0.01
1700026356.6107955,38771,1700026356,595931648,sensor_wgs84,0.6639780402183533,0.1618107557296753,0.2418452948331833,0.6888115406036377,1.6638478272969215e-06,0.0,0.0,0.0,1.9368982423023325e-06,0.0,0.0,0.0,5.598165733428084e-05,-0.018877742812037468,-0.01339629851281643,-0.019941290840506554,0.01,0.0,0.0,0.0,0.01,0.0,0.0,0.0,0.01,0.06712573766708374,0.2849740982055664,0.08690458536148071,0.01,0.0,0.0,0.0,0.01,0.0,0.0,0.0,0.01
1700026356.6221833,38772,1700026356,605945600,sensor_wgs84,0.6639173626899719,0.16183321177959442,0.24175862967967987,0.6888952255249023,1.6638478272969215e-06,0.0,0.0,0.0,1.9368982423023325e-06,0.0,0.0,0.0,5.598165733428084e-05,-0.013291017152369022,-0.004888876806944609,-0.023379147052764893,0.01,0.0,0.0,0.0,0.01,0.0,0.0,0.0,0.01,0.07218778133392334,0.271514892578125,0.083160400390625,0.01,0.0,0.0,0.0,0.01,0.0,0.0,0.0,0.01
1700026356.639285,38773,1700026356,615968000,sensor_wgs84,0.6638785004615784,0.1619146168231964,0.24167948961257935,0.6889412999153137,1.6638478272969215e-06,0.0,0.0,0.0,1.9368982423023325e-06,0.0,0.0,0.0,5.598165733428084e-05,-0.004899467341601849,0.000507594901137054,-0.02668531984090805,0.01,0.0,0.0,0.0,0.01,0.0,0.0,0.0,0.01,0.08567756414413452,0.2582874298095703,-0.031701862812042236,0.01,0.0,0.0,0.0,0.01,0.0,0.0,0.0,0.01
1700026356.6409023,38774,1700026356,625982208,sensor_wgs84,0.6638705730438232,0.1620139181613922,0.24158290028572083,0.6889594793319702,1.6638478272969215e-06,0.0,0.0,0.0,1.9368982423023325e-06,0.0,0.0,0.0,5.598165733428084e-05,0.010091652162373066,0.00015705905389040709,-0.02960931695997715,0.01,0.0,0.0,0.0,0.01,0.0,0.0,0.0,0.01,0.13531464338302612,0.2456369400024414,-0.0460086464881897,0.01,0.0,0.0,0.0,0.01,0.0,0.0,0.0,0.01
1700026356.6515086,38775,1700026356,635995648,sensor_wgs84,0.663892924785614,0.1621260792016983,0.24145691096782684,0.6889557242393494,1.6638478272969215e-06,0.0,0.0,0.0,1.9368982423023325e-06,0.0,0.0,0.0,5.598165733428084e-05,0.013877092860639095,-0.008908938616514206,-0.03609956055879593,0.01,0.0,0.0,0.0,0.01,0.0,0.0,0.0,0.01,0.1540219783782959,0.2671022415161133,-0.17982393503189087,0.01,0.0,0.0,0.0,0.01,0.0,0.0,0.0,0.01
1700026356.663128,38776,1700026356,646010880,sensor_wgs84,0.6639414429664612,0.1622176468372345,0.24125774204730988,0.6889570951461792,1.6638478272969215e-06,0.0,0.0,0.0,1.9368982423023325e-06,0.0,0.0,0.0,5.598165733428084e-05,0.022608987987041473,-0.025126921012997627,-0.04238094389438629,0.01,0.0,0.0,0.0,0.01,0.0,0.0,0.0,0.01,0.17918336391448975,0.258331298828125,-0.24283736944198608,0.01,0.0,0.0,0.0,0.01,0.0,0.0,0.0,0.01
1700026356.6760845,38777,1700026356,656027904,sensor_wgs84,0.6640388369560242,0.1622699797153473,0.24097764492034912,0.6889490485191345,1.6638478272969215e-06,0.0,0.0,0.0,1.9368982423023325e-06,0.0,0.0,0.0,5.598165733428084e-05,0.035052284598350525,-0.04453130438923836,-0.04501279443502426,0.01,0.0,0.0,0.0,0.01,0.0,0.0,0.0,0.01,0.18635976314544678,0.24750995635986328,-0.3489115834236145,0.01,0.0,0.0,0.0,0.01,0.0,0.0,0.0,0.01
1700026356.6816661,38778,1700026356,666041856,sensor_wgs84,0.6641705632209778,0.1622907966375351,0.24059651792049408,0.6889503002166748,1.652837130442769e-06,0.0,0.0,0.0,1.9285212623744636e-06,0.0,0.0,0.0,5.589499207866392e-05,0.032641150057315826,-0.06085631251335144,-0.05851523578166962,0.01,0.0,0.0,0.0,0.01,0.0,0.0,0.0,0.01,0.1923656463623047,0.3042182922363281,-0.4050806760787964,0.01,0.0,0.0,0.0,0.01,0.0,0.0,0.0,0.01
1700026356.6939285,38779,1700026356,676058624,sensor_wgs84,0.664293110370636,0.16229192912578583,0.24009037017822266,0.6890084743499756,1.652837130442769e-06,0.0,0.0,0.0,1.9285212623744636e-06,0.0,0.0,0.0,5.589499207866392e-05,0.022760486230254173,-0.0852617397904396,-0.07721498608589172,0.01,0.0,0.0,0.0,0.01,0.0,0.0,0.0,0.01,0.1283896565437317,0.3490428924560547,-0.4008077383041382,0.01,0.0,0.0,0.0,0.01,0.0,0.0,0.0,0.01
1700026356.7069066,38780,1700026356,686077440,sensor_wgs84,0.6644277572631836,0.1622735559940338,0.23945733904838562,0.6891032457351685,1.652837130442769e-06,0.0,0.0,0.0,1.9285212623744636e-06,0.0,0.0,0.0,5.589499207866392e-05,0.026403209194540977,-0.1010175496339798,-0.09044289588928223,0.01,0.0,0.0,0.0,0.01,0.0,0.0,0.0,0.01,0.06435656547546387,0.3321504592895508,-0.2146638035774231,0.01,0.0,0.0,0.0,0.01,0.0,0.0,0.0,0.01
1700026356.711087,38781,1700026356,696090624,sensor_wgs84,0.6646050810813904,0.1622774451971054,0.2387826144695282,0.6891654133796692,1.652837130442769e-06,0.0,0.0,0.0,1.9285212623744636e-06,0.0,0.0,0.0,5.589499207866392e-05,0.04785118252038956,-0.09171539545059204,-0.08630873262882233,0.01,0.0,0.0,0.0,0.01,0.0,0.0,0.0,0.01,0.016302287578582764,0.2977476119995117,-0.010895133018493652,0.01,0.0,0.0,0.0,0.01,0.0,0.0,0.0,0.01
1700026356.7239246,38782,1700026356,706106880,sensor_wgs84,0.6648352146148682,0.16231821477413177,0.23818832635879517,0.6891395449638367,1.652837130442769e-06,0.0,0.0,0.0,1.9285212623744636e-06,0.0,0.0,0.0,5.589499207866392e-05,0.06351574510335922,-0.07384315133094788,-0.07539649307727814,0.01,0.0,0.0,0.0,0.01,0.0,0.0,0.0,0.01,-0.06493371725082397,0.2534904479980469,-0.020172417163848877,0.01,0.0,0.0,0.0,0.01,0.0,0.0,0.0,0.01
1700026356.7360363,38783,1700026356,716124928,sensor_wgs84,0.6651363372802734,0.16239869594573975,0.23770397901535034,0.6889972686767578,1.652837130442769e-06,0.0,0.0,0.0,1.9285212623744636e-06,0.0,0.0,0.0,5.589499207866392e-05,0.08621569722890854,-0.05605999007821083,-0.04890885949134827,0.01,0.0,0.0,0.0,0.01,0.0,0.0,0.0,0.01,-0.11075478792190552,0.20737457275390625,-0.029787421226501465,0.01,0.0,0.0,0.0,0.01,0.0,0.0,0.0,0.01
1700026356.742468,38784,1700026356,726139904,sensor_wgs84,0.6654669642448425,0.16250009834766388,0.23732426762580872,0.6887849569320679,1.652837130442769e-06,0.0,0.0,0.0,1.9285212623744636e-06,0.0,0.0,0.0,5.589499207866392e-05,0.09091158956289291,-0.03315551578998566,-0.042527612298727036,0.01,0.0,0.0,0.0,0.01,0.0,0.0,0.0,0.01,-0.10515451431274414,0.2514781951904297,0.007679283618927002,0.01,0.0,0.0,0.0,0.01,0.0,0.0,0.0,0.01
1700026356.7589018,38785,1700026356,736155136,sensor_wgs84,0.6657782196998596,0.16265524923801422,0.23701639473438263,0.688553512096405,1.652837130442769e-06,0.0,0.0,0.0,1.9285212623744636e-06,0.0,0.0,0.0,5.589499207866392e-05,0.0888124480843544,-0.021582286804914474,-0.0413949079811573,0.01,0.0,0.0,0.0,0.01,0.0,0.0,0.0,0.01,-0.09208709001541138,0.29121875762939453,-0.05174398422241211,0.01,0.0,0.0,0.0,0.01,0.0,0.0,0.0,0.01
1700026356.7642798,38786,1700026356,746172160,sensor_wgs84,0.6660752892494202,0.1628551334142685,0.23673945665359497,0.6883141994476318,1.652837130442769e-06,0.0,0.0,0.0,1.9285212623744636e-06,0.0,0.0,0.0,5.589499207866392e-05,0.08903968334197998,-0.012053009122610092,-0.038736939430236816,0.01,0.0,0.0,0.0,0.01,0.0,0.0,0.0,0.01,-0.10671091079711914,0.2087841033935547,-0.11540299654006958,0.01,0.0,0.0,0.0,0.01,0.0,0.0,0.0,0.01
1700026356.7715633,38787,1700026356,756186112,sensor_wgs84,0.6663895845413208,0.1630360633134842,0.23650407791137695,0.6880480051040649,1.652837130442769e-06,0.0,0.0,0.0,1.9285212623744636e-06,0.0,0.0,0.0,5.589499207866392e-05,0.10201672464609146,-0.01580122858285904,-0.025116417557001114,0.01,0.0,0.0,0.0,0.01,0.0,0.0,0.0,0.01,-0.1846213936805725,0.23041915893554688,-0.2120620608329773,0.01,0.0,0.0,0.0,0.01,0.0,0.0,0.0,0.01
1700026356.7843454,38788,1700026356,766201856,sensor_wgs84,0.6667622923851013,0.16316711902618408,0.23625586926937103,0.6877410411834717,1.652837130442769e-06,0.0,0.0,0.0,1.9285212623744636e-06,0.0,0.0,0.0,5.589499207866392e-05,0.10863034427165985,-0.026810189709067345,-0.024563951417803764,0.01,0.0,0.0,0.0,0.01,0.0,0.0,0.0,0.01,-0.19270825386047363,0.35806751251220703,-0.15431267023086548,0.01,0.0,0.0,0.0,0.01,0.0,0.0,0.0,0.01
1700026356.795847,38789,1700026356,776219392,sensor_wgs84,0.6671664714813232,0.16331236064434052,0.2359665185213089,0.6874139308929443,1.652837130442769e-06,0.0,0.0,0.0,1.9285212623744636e-06,0.0,0.0,0.0,5.589499207866392e-05,0.12212924659252167,-0.02341139316558838,-0.036086540669202805,0.01,0.0,0.0,0.0,0.01,0.0,0.0,0.0,0.01,-0.24165195226669312,0.33736515045166016,-0.03441280126571655,0.01,0.0,0.0,0.0,0.01,0.0,0.0,0.0,0.01
1700026356.801088,38790,1700026356,786232832,sensor_wgs84,0.6675834059715271,0.16352355480194092,0.23567728698253632,0.6870580911636353,1.652837130442769e-06,0.0,0.0,0.0,1.9285212623744636e-06,0.0,0.0,0.0,5.589499207866392e-05,0.12925469875335693,-0.007304718717932701,-0.044251445680856705,0.01,0.0,0.0,0.0,0.01,0.0,0.0,0.0,0.01,-0.2921716570854187,0.3348512649536133,-0.01695340871810913,0.01,0.0,0.0,0.0,0.01,0.0,0.0,0.0,0.01
1700026356.8151293,38791,1700026356,796249088,sensor_wgs84,0.6679835319519043,0.1638285517692566,0.23538057506084442,0.6866981387138367,1.652837130442769e-06,0.0,0.0,0.0,1.9285212623744636e-06,0.0,0.0,0.0,5.589499207866392e-05,0.12884528934955597,0.0005186920752748847,-0.05754466727375984,0.01,0.0,0.0,0.0,0.01,0.0,0.0,0.0,0.01,-0.30793994665145874,0.2892894744873047,0.10519802570343018,0.01,0.0,0.0,0.0,0.01,0.0,0.0,0.0,0.01
1700026356.8252625,38792,1700026356,806267136,sensor_wgs84,0.6683483719825745,0.16423054039478302,0.23511499166488647,0.6863380074501038,1.652837130442769e-06,0.0,0.0,0.0,1.9285212623744636e-06,0.0,0.0,0.0,5.589499207866392e-05,0.13131771981716156,0.02817566506564617,-0.059960782527923584,0.01,0.0,0.0,0.0,0.01,0.0,0.0,0.0,0.01,-0.2984932065010071,0.18799591064453125,0.1151738166809082,0.01,0.0,0.0,0.0,0.01,0.0,0.0,0.0,0.01
1700026356.8306594,38793,1700026356,816280576,sensor_wgs84,0.668701171875,0.16469332575798035,0.2349337786436081,0.6859453916549683,1.652837130442769e-06,0.0,0.0,0.0,1.9285212623744636e-06,0.0,0.0,0.0,5.589499207866392e-05,0.12894782423973083,0.03878393396735191,-0.045843347907066345,0.01,0.0,0.0,0.0,0.01,0.0,0.0,0.0,0.01,-0.31307923793792725,0.16509437561035156,-0.07791227102279663,0.01,0.0,0.0,0.0,0.01,0.0,0.0,0.0,0.01
1700026356.8448734,38794,1700026356,826297088,sensor_wgs84,0.6690804362297058,0.16514988243579865,0.2348019927740097,0.6855107545852661,1.652837130442769e-06,0.0,0.0,0.0,1.9285212623744636e-06,0.0,0.0,0.0,5.589499207866392e-05,0.14006184041500092,0.04663862660527229,-0.03781387582421303,0.01,0.0,0.0,0.0,0.01,0.0,0.0,0.0,0.01,-0.32198649644851685,0.13553333282470703,-0.09228765964508057,0.01,0.0,0.0,0.0,0.01,0.0,0.0,0.0,0.01
1700026356.856682,38795,1700026356,836315904,sensor_wgs84,0.6695398688316345,0.16541436314582825,0.23459266126155853,0.6850699186325073,1.652837130442769e-06,0.0,0.0,0.0,1.9285212623744636e-06,0.0,0.0,0.0,5.589499207866392e-05,0.16135987639427185,0.051874272525310516,-0.028923582285642624,0.01,0.0,0.0,0.0,0.01,0.0,0.0,0.0,0.01,-0.3056279420852661,0.19236278533935547,-0.036959320306777954,0.01,0.0,0.0,0.0,0.01,0.0,0.0,0.0,0.01
1700026356.8619788,38796,1700026356,846330112,sensor_wgs84,0.670016884803772,0.1658647060394287,0.23454998433589935,0.6845090389251709,1.652837130442769e-06,0.0,0.0,0.0,1.9285212623744636e-06,0.0,0.0,0.0,5.589499207866392e-05,0.16248904168605804,0.050978176295757294,-0.027996301651000977,0.01,0.0,0.0,0.0,0.01,0.0,0.0,0.0,0.01,-0.31349146366119385,0.33772850036621094,-0.1293589472770691,0.01,0.0,0.0,0.0,0.01,0.0,0.0,0.0,0.01
1700026356.87305,38797,1700026356,856346112,sensor_wgs84,0.6704956293106079,0.16635040938854218,0.23445703089237213,0.6839540600776672,1.652837130442769e-06,0.0,0.0,0.0,1.9285212623744636e-06,0.0,0.0,0.0,5.589499207866392e-05,0.1699855923652649,0.04611751437187195,-0.044862013310194016,0.01,0.0,0.0,0.0,0.01,0.0,0.0,0.0,0.01,-0.3440173268318176,0.38667964935302734,0.0026246309280395508,0.01,0.0,0.0,0.0,0.01,0.0,0.0,0.0,0.01
1700026356.885055,38798,1700026356,866363648,sensor_wgs84,0.6709653735160828,0.1669243574142456,0.23430489003658295,0.6834054589271545,1.64234633003897e-06,0.0,0.0,0.0,1.920523157631672e-06,0.0,0.0,0.0,5.5811142183611684e-05,0.16937275230884552,0.058458998799324036,-0.07189403474330902,0.01,0.0,0.0,0.0,0.01,0.0,0.0,0.0,0.01,-0.4078526496887207,0.3511829376220703,-0.012186646461486816,0.01,0.0,0.0,0.0,0.01,0.0,0.0,0.0,0.01
1700026356.8924034,38799,1700026356,876378368,sensor_wgs84,0.671385645866394,0.16759034991264343,0.23409715294837952,0.6829006671905518,1.64234633003897e-06,0.0,0.0,0.0,1.920523157631672e-06,0.0,0.0,0.0,5.5811142183611684e-05,0.1566460281610489,0.065306656062603,-0.09558480978012085,0.01,0.0,0.0,0.0,0.01,0.0,0.0,0.0,0.01,-0.42938143014907837,0.3754892349243164,0.021686553955078125,0.01,0.0,0.0,0.0,0.01,0.0,0.0,0.0,0.01
1700026356.9098437,38800,1700026356,886400256,sensor_wgs84,0.6717128753662109,0.16840052604675293,0.23381870985031128,0.6824748516082764,1.64234633003897e-06,0.0,0.0,0.0,1.920523157631672e-06,0.0,0.0,0.0,5.5811142183611684e-05,0.14342889189720154,0.08523603528738022,-0.13274146616458893,0.01,0.0,0.0,0.0,0.01,0.0,0.0,0.0,0.01,-0.3957081437110901,0.40808773040771484,0.22932341694831848,0.01,0.0,0.0,0.0,0.01,0.0,0.0,0.0,0.01
1700026356.9143047,38801,1700026356,896417280,sensor_wgs84,0.6719609498977661,0.169376939535141,0.23350642621517181,0.6820958256721497,1.64234633003897e-06,0.0,0.0,0.0,1.920523157631672e-06,0.0,0.0,0.0,5.5811142183611684e-05,0.14045560359954834,0.10495945811271667,-0.15714439749717712,0.01,0.0,0.0,0.0,0.01,0.0,0.0,0.0,0.01,-0.3917163014411926,0.24390220642089844,0.21189852058887482,0.01,0.0,0.0,0.0,0.01,0.0,0.0,0.0,0.01
1700026356.9208908,38802,1700026356,906430720,sensor_wgs84,0.6721607446670532,0.1704554259777069,0.23321375250816345,0.681730329990387,1.64234633003897e-06,0.0,0.0,0.0,1.920523157631672e-06,0.0,0.0,0.0,5.5811142183611684e-05,0.13060703873634338,0.11295923590660095,-0.16090844571590424,0.01,0.0,0.0,0.0,0.01,0.0,0.0,0.0,0.01,-0.4061148166656494,0.11100959777832031,0.01870328187942505,0.01,0.0,0.0,0.0,0.01,0.0,0.0,0.0,0.01
1700026356.933725,38803,1700026356,916446464,sensor_wgs84,0.6723545789718628,0.171518936753273,0.2329464852809906,0.6813637018203735,1.64234633003897e-06,0.0,0.0,0.0,1.920523157631672e-06,0.0,0.0,0.0,5.5811142183611684e-05,0.13713482022285461,0.11777172237634659,-0.15261545777320862,0.01,0.0,0.0,0.0,0.01,0.0,0.0,0.0,0.01,-0.41822153329849243,0.0065155029296875,0.04632300138473511,0.01,0.0,0.0,0.0,0.01,0.0,0.0,0.0,0.01
1700026356.9456263,38804,1700026356,926464000,sensor_wgs84,0.6725636720657349,0.17255832254886627,0.23272716999053955,0.6809698343276978,1.64234633003897e-06,0.0,0.0,0.0,1.920523157631672e-06,0.0,0.0,0.0,5.5811142183611684e-05,0.13968372344970703,0.12184802442789078,-0.13423633575439453,0.01,0.0,0.0,0.0,0.01,0.0,0.0,0.0,0.01,-0.4148123264312744,-0.10601043701171875,0.09129795432090759,0.01,0.0,0.0,0.0,0.01,0.0,0.0,0.0,0.01
1700026356.9510596,38805,1700026356,936476928,sensor_wgs84,0.6727907657623291,0.173588827252388,0.23258917033672333,0.6805305480957031,1.64234633003897e-06,0.0,0.0,0.0,1.920523157631672e-06,0.0,0.0,0.0,5.5811142183611684e-05,0.1437581479549408,0.1348511278629303,-0.1312382072210312,0.01,0.0,0.0,0.0,0.01,0.0,0.0,0.0,0.01,-0.37887972593307495,-0.046578407287597656,0.18052944540977478,0.01,0.0,0.0,0.0,0.01,0.0,0.0,0.0,0.01
1700026356.965134,38806,1700026356,946491904,sensor_wgs84,0.6729969382286072,0.17468281090259552,0.23249123990535736,0.6800801157951355,1.64234633003897e-06,0.0,0.0,0.0,1.920523157631672e-06,0.0,0.0,0.0,5.5811142183611684e-05,0.14075012505054474,0.151459738612175,-0.1359899491071701,0.01,0.0,0.0,0.0,0.01,0.0,0.0,0.0,0.01,-0.30015891790390015,0.07588481903076172,0.2954869568347931,0.01,0.0,0.0,0.0,0.01,0.0,0.0,0.0,0.01
1700026356.9765816,38807,1700026356,956509952,sensor_wgs84,0.6731501817703247,0.17588983476161957,0.23240531980991364,0.6796464920043945,1.64234633003897e-06,0.0,0.0,0.0,1.920523157631672e-06,0.0,0.0,0.0,5.5811142183611684e-05,0.13613450527191162,0.16043168306350708,-0.15963512659072876,0.01,0.0,0.0,0.0,0.01,0.0,0.0,0.0,0.01,-0.3330881595611572,-0.06795215606689453,0.1574975699186325,0.01,0.0,0.0,0.0,0.01,0.0,0.0,0.0,0.01
1700026356.9806273,38808,1700026356,966523392,sensor_wgs84,0.6732494235038757,0.1771857887506485,0.23229768872261047,0.6792483329772949,1.64234633003897e-06,0.0,0.0,0.0,1.920523157631672e-06,0.0,0.0,0.0,5.5811142183611684e-05,0.12776806950569153,0.16817320883274078,-0.16640397906303406,0.01,0.0,0.0,0.0,0.01,0.0,0.0,0.0,0.01,-0.2759819030761719,-0.2760486602783203,-0.08045217394828796,0.01,0.0,0.0,0.0,0.01,0.0,0.0,0.0,0.01
1700026356.999684,38809,1700026356,976544512,sensor_wgs84,0.6733105778694153,0.1784754991531372,0.23218688368797302,0.6788878440856934,1.64234633003897e-06,0.0,0.0,0.0,1.920523157631672e-06,0.0,0.0,0.0,5.5811142183611684e-05,0.11288803070783615,0.16432683169841766,-0.16937094926834106,0.01,0.0,0.0,0.0,0.01,0.0,0.0,0.0,0.01,-0.2670441269874573,-0.34157562255859375,-0.19761547446250916,0.01,0.0,0.0,0.0,0.01,0.0,0.0,0.0,0.01
1700026357.006701,38810,1700026356,986562816,sensor_wgs84,0.6733493208885193,0.1797071248292923,0.23202182352542877,0.6785808801651001,1.64234633003897e-06,0.0,0.0,0.0,1.920523157631672e-06,0.0,0.0,0.0,5.5811142183611684e-05,0.10243099182844162,0.14096714556217194,-0.1693771481513977,0.01,0.0,0.0,0.0,0.01,0.0,0.0,0.0,0.01,-0.22610986232757568,-0.36282825469970703,-0.19790241122245789,0.01,0.0,0.0,0.0,0.01,0.0,0.0,0.0,0.01
1700026357.011191,38811,1700026356,996576512,sensor_wgs84,0.6733779907226562,0.18086324632167816,0.23184143006801605,0.6783069372177124,1.64234633003897e-06,0.0,0.0,0.0,1.920523157631672e-06,0.0,0.0,0.0,5.5811142183611684e-05,0.09974076598882675,0.13461913168430328,-0.1615227311849594,0.01,0.0,0.0,0.0,0.01,0.0,0.0,0.0,0.01,-0.2211121916770935,-0.4934835433959961,-0.12517333030700684,0.01,0.0,0.0,0.0,0.01,0.0,0.0,0.0,0.01
1700026357.0240524,38812,1700026357,6592512,sensor_wgs84,0.6733812689781189,0.18197199702262878,0.23169811069965363,0.6780559420585632,1.64234633003897e-06,0.0,0.0,0.0,1.920523157631672e-06,0.0,0.0,0.0,5.5811142183611684e-05,0.081186942756176,0.14246778190135956,-0.1557585448026657,0.01,0.0,0.0,0.0,0.01,0.0,0.0,0.0,0.01,-0.18921571969985962,-0.3784065246582031,0.012504249811172485,0.01,0.0,0.0,0.0,0.01,0.0,0.0,0.0,0.01
1700026357.0350485,38813,1700026357,16609792,sensor_wgs84,0.6732965111732483,0.183101087808609,0.23159851133823395,0.6778702139854431,1.64234633003897e-06,0.0,0.0,0.0,1.920523157631672e-06,0.0,0.0,0.0,5.5811142183611684e-05,0.05815839022397995,0.15739117562770844,-0.1621173620223999,0.01,0.0,0.0,0.0,0.01,0.0,0.0,0.0,0.01,-0.12737977504730225,-0.29462623596191406,0.16080859303474426,0.01,0.0,0.0,0.0,0.01,0.0,0.0,0.0,0.01
1700026357.0425265,38814,1700026357,26624000,sensor_wgs84,0.673139750957489,0.18427085876464844,0.23159343004226685,0.6777105927467346,1.64234633003897e-06,0.0,0.0,0.0,1.920523157631672e-06,0.0,0.0,0.0,5.5811142183611684e-05,0.05327579751610756,0.18182989954948425,-0.1453486680984497,0.01,0.0,0.0,0.0,0.01,0.0,0.0,0.0,0.01,-0.12360656261444092,-0.4041328430175781,0.046376630663871765,0.01,0.0,0.0,0.0,0.01,0.0,0.0,0.0,0.01
1700026357.0530853,38815,1700026357,36638720,sensor_wgs84,0.672976016998291,0.18542493879795074,0.23170889914035797,0.6775190234184265,1.64234633003897e-06,0.0,0.0,0.0,1.920523157631672e-06,0.0,0.0,0.0,5.5811142183611684e-05,0.05299423635005951,0.19261367619037628,-0.12419717013835907,0.01,0.0,0.0,0.0,0.01,0.0,0.0,0.0,0.01,-0.08988845348358154,-0.4229621887207031,-0.028744801878929138,0.01,0.0,0.0,0.0,0.01,0.0,0.0,0.0,0.01
1700026357.0654223,38816,1700026357,46655488,sensor_wgs84,0.6728114485740662,0.18653565645217896,0.23194235563278198,0.6772975921630859,1.64234633003897e-06,0.0,0.0,0.0,1.920523157631672e-06,0.0,0.0,0.0,5.5811142183611684e-05,0.04923480004072189,0.20313405990600586,-0.11139833182096481,0.01,0.0,0.0,0.0,0.01,0.0,0.0,0.0,0.01,-0.0027374625205993652,-0.26436424255371094,0.15216419100761414,0.01,0.0,0.0,0.0,0.01,0.0,0.0,0.0,0.01
1700026357.0718834,38817,1700026357,56668672,sensor_wgs84,0.6726143956184387,0.1876654177904129,0.2322445660829544,0.67707759141922,1.6401163842289326e-06,0.0,0.0,0.0,1.93222651637473e-06,0.0,0.0,0.0,5.576884092654225e-05,0.04046856611967087,0.21855203807353973,-0.10970097035169601,0.01,0.0,0.0,0.0,0.01,0.0,0.0,0.0,0.01,0.06057250499725342,-0.22974681854248047,0.09729939699172974,0.01,0.0,0.0,0.0,0.01,0.0,0.0,0.0,0.01
1700026357.0892158,38818,1700026357,66690048,sensor_wgs84,0.6723892688751221,0.18880897760391235,0.232564315199852,0.676873505115509,1.6401163842289326e-06,0.0,0.0,0.0,1.93222651637473e-06,0.0,0.0,0.0,5.576884092654225e-05,0.03382135555148125,0.21368184685707092,-0.10900858789682388,0.01,0.0,0.0,0.0,0.01,0.0,0.0,0.0,0.01,0.11393645405769348,-0.28014659881591797,0.01331813633441925,0.01,0.0,0.0,0.0,0.01,0.0,0.0,0.0,0.01
1700026357.095998,38819,1700026357,76708096,sensor_wgs84,0.6721475720405579,0.18992143869400024,0.23288065195083618,0.6766936182975769,1.6401163842289326e-06,0.0,0.0,0.0,1.93222651637473e-06,0.0,0.0,0.0,5.576884092654225e-05,0.027093466371297836,0.21045148372650146,-0.10633138567209244,0.01,0.0,0.0,0.0,0.01,0.0,0.0,0.0,0.01,0.1992027461528778,-0.28644275665283203,0.07117322087287903,0.01,0.0,0.0,0.0,0.01,0.0,0.0,0.0,0.01
1700026357.1012502,38820,1700026357,86721792,sensor_wgs84,0.6719463467597961,0.19076195359230042,0.23302799463272095,0.676606297492981,1.6401163842289326e-06,0.0,0.0,0.0,1.93222651637473e-06,0.0,0.0,0.0,5.576884092654225e-05,0.0046860938891768456,0.19997958838939667,-0.11743476241827011,0.01,0.0,0.0,0.0,0.01,0.0,0.0,0.0,0.01,0.2615090310573578,-0.16930484771728516,-0.10556277632713318,0.01,0.0,0.0,0.0,0.01,0.0,0.0,0.0,0.01
1700026357.1144037,38821,1700026357,96737536,sensor_wgs84,0.6715708374977112,0.19185693562030792,0.2332557737827301,0.6765909790992737,1.6401163842289326e-06,0.0,0.0,0.0,1.93222651637473e-06,0.0,0.0,0.0,5.576884092654225e-05,-0.018315210938453674,0.18699856102466583,-0.13969463109970093,0.01,0.0,0.0,0.0,0.01,0.0,0.0,0.0,0.01,0.3602086007595062,-0.1410083770751953,-0.11152197420597076,0.01,0.0,0.0,0.0,0.01,0.0,0.0,0.0,0.01
1700026357.1266503,38822,1700026357,106755328,sensor_wgs84,0.6711371541023254,0.19294367730617523,0.23341013491153717,0.6766589879989624,1.6401163842289326e-06,0.0,0.0,0.0,1.93222651637473e-06,0.0,0.0,0.0,5.576884092654225e-05,-0.029857821762561798,0.18067321181297302,-0.14320649206638336,0.01,0.0,0.0,0.0,0.01,0.0,0.0,0.0,0.01,0.4098179340362549,-0.19543170928955078,-0.15418954193592072,0.01,0.0,0.0,0.0,0.01,0.0,0.0,0.0,0.01
1700026357.1402004,38823,1700026357,116770304,sensor_wgs84,0.6707354784011841,0.19392845034599304,0.23354238271713257,0.6767301559448242,1.6401163842289326e-06,0.0,0.0,0.0,1.93222651637473e-06,0.0,0.0,0.0,5.576884092654225e-05,-0.015161631628870964,0.15766414999961853,-0.11908329278230667,0.01,0.0,0.0,0.0,0.01,0.0,0.0,0.0,0.01,0.3271815776824951,-0.34839725494384766,-0.200914666056633,0.01,0.0,0.0,0.0,0.01,0.0,0.0,0.0,0.01
1700026357.1436927,38824,1700026357,126786304,sensor_wgs84,0.6704217195510864,0.19472099840641022,0.23369550704956055,0.6767606735229492,1.6401163842289326e-06,0.0,0.0,0.0,1.93222651637473e-06,0.0,0.0,0.0,5.576884092654225e-05,-0.009110885672271252,0.12203551083803177,-0.07855701446533203,0.01,0.0,0.0,0.0,0.01,0.0,0.0,0.0,0.01,0.23084864020347595,-0.3211536407470703,-0.2515754699707031,0.01,0.0,0.0,0.0,0.01,0.0,0.0,0.0,0.01
1700026357.1556473,38825,1700026357,136804352,sensor_wgs84,0.6701914072036743,0.1953207403421402,0.23383520543575287,0.6767675876617432,1.6401163842289326e-06,0.0,0.0,0.0,1.93222651637473e-06,0.0,0.0,0.0,5.576884092654225e-05,-0.009571927599608898,0.09819608926773071,-0.06873325258493423,0.01,0.0,0.0,0.0,0.01,0.0,0.0,0.0,0.01,0.1813998818397522,-0.04084491729736328,-0.07198415696620941,0.01,0.0,0.0,0.0,0.01,0.0,0.0,0.0,0.01
1700026357.1672602,38826,1700026357,146822656,sensor_wgs84,0.669934868812561,0.1958865225315094,0.23389993607997894,0.6768357753753662,1.6401163842289326e-06,0.0,0.0,0.0,1.93222651637473e-06,0.0,0.0,0.0,5.576884092654225e-05,-0.02671993523836136,0.09335769712924957,-0.09369796514511108,0.01,0.0,0.0,0.0,0.01,0.0,0.0,0.0,0.01,0.13944652676582336,0.1223287582397461,0.20225325226783752,0.01,0.0,0.0,0.0,0.01,0.0,0.0,0.0,0.01
1700026357.1766546,38827,1700026357,156838144,sensor_wgs84,0.6696000695228577,0.19652576744556427,0.23387327790260315,0.6769909262657166,1.6401163842289326e-06,0.0,0.0,0.0,1.93222651637473e-06,0.0,0.0,0.0,5.576884092654225e-05,-0.050130169838666916,0.08902697265148163,-0.12999126315116882,0.01,0.0,0.0,0.0,0.01,0.0,0.0,0.0,0.01,0.05790337920188904,0.15751266479492188,0.25546959042549133,0.01,0.0,0.0,0.0,0.01,0.0,0.0,0.0,0.01
1700026357.1882398,38828,1700026357,166855424,sensor_wgs84,0.6691666841506958,0.19725461304187775,0.23374420404434204,0.6772519946098328,1.6401163842289326e-06,0.0,0.0,0.0,1.93222651637473e-06,0.0,0.0,0.0,5.576884092654225e-05,-0.05753264203667641,0.09150952100753784,-0.15176904201507568,0.01,0.0,0.0,0.0,0.01,0.0,0.0,0.0,0.01,0.028489291667938232,0.10105037689208984,0.3700546622276306,0.01,0.0,0.0,0.0,0.01,0.0,0.0,0.0,0.01
1700026357.1963418,38829,1700026357,176869376,sensor_wgs84,0.6687195897102356,0.19806690514087677,0.2336006462574005,0.6775060892105103,1.6401163842289326e-06,0.0,0.0,0.0,1.93222651637473e-06,0.0,0.0,0.0,5.576884092654225e-05,-0.04420916363596916,0.11073824018239975,-0.15102726221084595,0.01,0.0,0.0,0.0,0.01,0.0,0.0,0.0,0.01,-0.10123729705810547,-0.08070945739746094,0.45840901136398315,0.01,0.0,0.0,0.0,0.01,0.0,0.0,0.0,0.01
1700026357.2068543,38830,1700026357,186883584,sensor_wgs84,0.66832435131073,0.19890806078910828,0.23354628682136536,0.6776683330535889,1.6401163842289326e-06,0.0,0.0,0.0,1.93222651637473e-06,0.0,0.0,0.0,5.576884092654225e-05,-0.021341532468795776,0.12936371564865112,-0.13166794180870056,0.01,0.0,0.0,0.0,0.01,0.0,0.0,0.0,0.01,-0.16495677828788757,-0.07048320770263672,0.5005518794059753,0.01,0.0,0.0,0.0,0.01,0.0,0.0,0.0,0.01
1700026357.2166946,38831,1700026357,196899840,sensor_wgs84,0.667975902557373,0.19979839026927948,0.23362091183662415,0.677724301815033,1.6401163842289326e-06,0.0,0.0,0.0,1.93222651637473e-06,0.0,0.0,0.0,5.576884092654225e-05,-0.01203559897840023,0.1603858917951584,-0.11992872506380081,0.01,0.0,0.0,0.0,0.01,0.0,0.0,0.0,0.01,-0.1444975733757019,0.034125328063964844,0.5296344757080078,0.01,0.0,0.0,0.0,0.01,0.0,0.0,0.0,0.01
1700026357.2224934,38832,1700026357,206913024,sensor_wgs84,0.6675969958305359,0.20079287886619568,0.23380450904369354,0.6777403950691223,1.6401163842289326e-06,0.0,0.0,0.0,1.93222651637473e-06,0.0,0.0,0.0,5.576884092654225e-05,-0.020312286913394928,0.19032777845859528,-0.12945403158664703,0.01,0.0,0.0,0.0,0.01,0.0,0.0,0.0,0.01,-0.09675601124763489,0.1526327133178711,0.4550837576389313,0.01,0.0,0.0,0.0,0.01,0.0,0.0,0.0,0.01
1700026357.2376523,38833,1700026357,216928768,sensor_wgs84,0.6671379804611206,0.20191819965839386,0.23402327299118042,0.6777825355529785,1.6401163842289326e-06,0.0,0.0,0.0,1.93222651637473e-06,0.0,0.0,0.0,5.576884092654225e-05,-0.024500906467437744,0.21287602186203003,-0.15173673629760742,0.01,0.0,0.0,0.0,0.01,0.0,0.0,0.0,0.01,-0.05333426594734192,0.14428329467773438,0.3522748351097107,0.01,0.0,0.0,0.0,0.01,0.0,0.0,0.0,0.01
1700026357.2457628,38834,1700026357,226946560,sensor_wgs84,0.6666343212127686,0.2031276971101761,0.23425154387950897,0.6778378486633301,1.6401163842289326e-06,0.0,0.0,0.0,1.93222651637473e-06,0.0,0.0,0.0,5.576884092654225e-05,-0.03008120507001877,0.21182559430599213,-0.1530783772468567,0.01,0.0,0.0,0.0,0.01,0.0,0.0,0.0,0.01,0.01577812433242798,0.14620018005371094,0.1040358692407608,0.01,0.0,0.0,0.0,0.01,0.0,0.0,0.0,0.01
1700026357.2512624,38835,1700026357,236959744,sensor_wgs84,0.6661234498023987,0.2043621987104416,0.23444175720214844,0.6779031753540039,1.6401163842289326e-06,0.0,0.0,0.0,1.93222651637473e-06,0.0,0.0,0.0,5.576884092654225e-05,-0.025188270956277847,0.2087193727493286,-0.1694675236940384,0.01,0.0,0.0,0.0,0.01,0.0,0.0,0.0,0.01,0.09889359772205353,0.2105569839477539,-0.0594959557056427,0.01,0.0,0.0,0.0,0.01,0.0,0.0,0.0,0.01
1700026357.2704856,38836,1700026357,246981376,sensor_wgs84,0.6656628847122192,0.2055853307247162,0.23456218838691711,0.6779441833496094,1.6401163842289326e-06,0.0,0.0,0.0,1.93222651637473e-06,0.0,0.0,0.0,5.576884092654225e-05,-0.004786449484527111,0.19072557985782623,-0.16792018711566925,0.01,0.0,0.0,0.0,0.01,0.0,0.0,0.0,0.01,0.07064950466156006,0.12919139862060547,-0.1675519049167633,0.01,0.0,0.0,0.0,0.01,0.0,0.0,0.0,0.01
1700026357.276003,38837,1700026357,256998912,sensor_wgs84,0.66530841588974,0.2067505121231079,0.2345660924911499,0.6779363751411438,1.6295436408510531e-06,0.0,0.0,0.0,1.9275439453382044e-06,0.0,0.0,0.0,5.5644027203428405e-05,0.015541194938123226,0.16661883890628815,-0.17418180406093597,0.01,0.0,0.0,0.0,0.01,0.0,0.0,0.0,0.01,0.10259892046451569,0.09443283081054688,-0.1006506085395813,0.01,0.0,0.0,0.0,0.01,0.0,0.0,0.0,0.01
1700026357.2826648,38838,1700026357,267012864,sensor_wgs84,0.6650295853614807,0.2078915536403656,0.23445582389831543,0.6778992414474487,1.6295436408510531e-06,0.0,0.0,0.0,1.9275439453382044e-06,0.0,0.0,0.0,5.5644027203428405e-05,0.029008399695158005,0.14625902473926544,-0.18067634105682373,0.01,0.0,0.0,0.0,0.01,0.0,0.0,0.0,0.01,0.09522722661495209,0.003887176513671875,-0.07373073697090149,0.01,0.0,0.0,0.0,0.01,0.0,0.0,0.0,0.01
1700026357.2948058,38839,1700026357,277029120,sensor_wgs84,0.6647918224334717,0.20901928842067719,0.2342505156993866,0.6778565645217896,1.6295436408510531e-06,0.0,0.0,0.0,1.9275439453382044e-06,0.0,0.0,0.0,5.5644027203428405e-05,0.03673376888036728,0.13323374092578888,-0.18717136979103088,0.01,0.0,0.0,0.0,0.01,0.0,0.0,0.0,0.01,0.06693607568740845,-0.11640548706054688,-0.09578859806060791,0.01,0.0,0.0,0.0,0.01,0.0,0.0,0.0,0.01
1700026357.3042092,38840,1700026357,287045632,sensor_wgs84,0.6645845770835876,0.21009936928749084,0.23399171233177185,0.677815318107605,1.6295436408510531e-06,0.0,0.0,0.0,1.9275439453382044e-06,0.0,0.0,0.0,5.5644027203428405e-05,0.037304170429706573,0.11739707738161087,-0.18686285614967346,0.01,0.0,0.0,0.0,0.01,0.0,0.0,0.0,0.01,0.07546700537204742,-0.27233123779296875,0.007687956094741821,0.01,0.0,0.0,0.0,0.01,0.0,0.0,0.0,0.01
1700026357.31116,38841,1700026357,297058560,sensor_wgs84,0.6643993854522705,0.2111157923936844,0.23374620079994202,0.6777657270431519,1.6295436408510531e-06,0.0,0.0,0.0,1.9275439453382044e-06,0.0,0.0,0.0,5.5644027203428405e-05,0.03614352270960808,0.1085013821721077,-0.16596120595932007,0.01,0.0,0.0,0.0,0.01,0.0,0.0,0.0,0.01,0.05650798976421356,-0.40079689025878906,-0.1516423225402832,0.01,0.0,0.0,0.0,0.01,0.0,0.0,0.0,0.01
1700026357.3240469,38842,1700026357,307073792,sensor_wgs84,0.6642229557037354,0.2120092511177063,0.23352636396884918,0.6777355074882507,1.6295436408510531e-06,0.0,0.0,0.0,1.9275439453382044e-06,0.0,0.0,0.0,5.5644027203428405e-05,0.025067124515771866,0.09125452488660812,-0.14145199954509735,0.01,0.0,0.0,0.0,0.01,0.0,0.0,0.0,0.01,0.040838196873664856,-0.4610414505004883,-0.17436012625694275,0.01,0.0,0.0,0.0,0.01,0.0,0.0,0.0,0.01
1700026357.335661,38843,1700026357,317090816,sensor_wgs84,0.6640180945396423,0.21278449892997742,0.23333020508289337,0.6777609586715698,1.6295436408510531e-06,0.0,0.0,0.0,1.9275439453382044e-06,0.0,0.0,0.0,5.5644027203428405e-05,0.004488798324018717,0.08311940729618073,-0.13555490970611572,0.01,0.0,0.0,0.0,0.01,0.0,0.0,0.0,0.01,0.028071612119674683,-0.4543886184692383,-0.025376707315444946,0.01,0.0,0.0,0.0,0.01,0.0,0.0,0.0,0.01
1700026357.3416073,38844,1700026357,327103232,sensor_wgs84,0.6637641787528992,0.21347810328006744,0.23317384719848633,0.6778453588485718,1.6295436408510531e-06,0.0,0.0,0.0,1.9275439453382044e-06,0.0,0.0,0.0,5.5644027203428405e-05,-0.01934944838285446,0.08007235825061798,-0.12028411775827408,0.01,0.0,0.0,0.0,0.01,0.0,0.0,0.0,0.01,-0.01423172652721405,-0.4205894470214844,0.003865152597427368,0.01,0.0,0.0,0.0,0.01,0.0,0.0,0.0,0.01
1700026357.359909,38845,1700026357,337125120,sensor_wgs84,0.6635652184486389,0.2139178216457367,0.23282961547374725,0.6780197620391846,1.6295436408510531e-06,0.0,0.0,0.0,1.9275439453382044e-06,0.0,0.0,0.0,5.5644027203428405e-05,-0.022918496280908585,0.08333562314510345,-0.1027112603187561,0.01,0.0,0.0,0.0,0.01,0.0,0.0,0.0,0.01,-0.04779049754142761,-0.4189767837524414,0.11249415576457977,0.01,0.0,0.0,0.0,0.01,0.0,0.0,0.0,0.01
1700026357.3640108,38846,1700026357,347141376,sensor_wgs84,0.6632727384567261,0.21451029181480408,0.23284362256526947,0.6781139969825745,1.6295436408510531e-06,0.0,0.0,0.0,1.9275439453382044e-06,0.0,0.0,0.0,5.5644027203428405e-05,-0.026996638625860214,0.10435571521520615,-0.08519221842288971,0.01,0.0,0.0,0.0,0.01,0.0,0.0,0.0,0.01,-0.05102458596229553,-0.40604400634765625,0.23092536628246307,0.01,0.0,0.0,0.0,0.01,0.0,0.0,0.0,0.01
1700026357.371168,38847,1700026357,357154304,sensor_wgs84,0.6629511713981628,0.21511781215667725,0.23301565647125244,0.6781768798828125,1.6295436408510531e-06,0.0,0.0,0.0,1.9275439453382044e-06,0.0,0.0,0.0,5.5644027203428405e-05,-0.03737752139568329,0.12448172271251678,-0.07120491564273834,0.01,0.0,0.0,0.0,0.01,0.0,0.0,0.0,0.01,0.00017885863780975342,-0.2565450668334961,0.15801970660686493,0.01,0.0,0.0,0.0,0.01,0.0,0.0,0.0,0.01
1700026357.3838248,38848,1700026357,367169024,sensor_wgs84,0.6625925302505493,0.21574079990386963,0.23326949775218964,0.6782422065734863,1.6295436408510531e-06,0.0,0.0,0.0,1.9275439453382044e-06,0.0,0.0,0.0,5.5644027203428405e-05,-0.04383961483836174,0.13274265825748444,-0.06202530115842819,0.01,0.0,0.0,0.0,0.01,0.0,0.0,0.0,0.01,-0.0027588456869125366,-0.2552976608276367,-0.04917743802070618,0.01,0.0,0.0,0.0,0.01,0.0,0.0,0.0,0.01
1700026357.3967075,38849,1700026357,377186560,sensor_wgs84,0.6622363924980164,0.21632975339889526,0.23356321454048157,0.6783013343811035,1.6295436408510531e-06,0.0,0.0,0.0,1.9275439453382044e-06,0.0,0.0,0.0,5.5644027203428405e-05,-0.03764914721250534,0.13134053349494934,-0.05002686381340027,0.01,0.0,0.0,0.0,0.01,0.0,0.0,0.0,0.01,-0.008981481194496155,-0.24892616271972656,-0.07357281446456909,0.01,0.0,0.0,0.0,0.01,0.0,0.0,0.0,0.01
1700026357.4025638,38850,1700026357,387200000,sensor_wgs84,0.6618839502334595,0.21688583493232727,0.23388822376728058,0.6783558130264282,1.6295436408510531e-06,0.0,0.0,0.0,1.9275439453382044e-06,0.0,0.0,0.0,5.5644027203428405e-05,-0.03926398605108261,0.1320008784532547,-0.04715624824166298,0.01,0.0,0.0,0.0,0.01,0.0,0.0,0.0,0.01,0.012654945254325867,-0.14992713928222656,0.03628206253051758,0.01,0.0,0.0,0.0,0.01,0.0,0.0,0.0,0.01
1700026357.41318,38851,1700026357,397214720,sensor_wgs84,0.6615304946899414,0.21745209395885468,0.23421400785446167,0.678406834602356,1.6295436408510531e-06,0.0,0.0,0.0,1.9275439453382044e-06,0.0,0.0,0.0,5.5644027203428405e-05,-0.046976931393146515,0.13626112043857574,-0.05017939582467079,0.01,0.0,0.0,0.0,0.01,0.0,0.0,0.0,0.01,0.03203912824392319,-0.09402179718017578,-0.03332355618476868,0.01,0.0,0.0,0.0,0.01,0.0,0.0,0.0,0.01
1700026357.4249916,38852,1700026357,407231488,sensor_wgs84,0.6611521244049072,0.21804139018058777,0.23454204201698303,0.6784732937812805,1.6295436408510531e-06,0.0,0.0,0.0,1.9275439453382044e-06,0.0,0.0,0.0,5.5644027203428405e-05,-0.049397196620702744,0.13624261319637299,-0.05787575617432594,0.01,0.0,0.0,0.0,0.01,0.0,0.0,0.0,0.01,0.06303770840167999,0.015176773071289062,0.008540689945220947,0.01,0.0,0.0,0.0,0.01,0.0,0.0,0.0,0.01
1700026357.4327571,38853,1700026357,417245184,sensor_wgs84,0.6607745885848999,0.2186555415391922,0.23481754958629608,0.6785479784011841,1.6295436408510531e-06,0.0,0.0,0.0,1.9275439453382044e-06,0.0,0.0,0.0,5.5644027203428405e-05,-0.04298853501677513,0.13234925270080566,-0.07114643603563309,0.01,0.0,0.0,0.0,0.01,0.0,0.0,0.0,0.01,0.07176604866981506,0.05286121368408203,0.058042123913764954,0.01,0.0,0.0,0.0,0.01,0.0,0.0,0.0,0.01
1700026357.449574,38854,1700026357,427265792,sensor_wgs84,0.6604049801826477,0.21930088102817535,0.23501266539096832,0.6786320805549622,1.6295436408510531e-06,0.0,0.0,0.0,1.9275439453382044e-06,0.0,0.0,0.0,5.5644027203428405e-05,-0.0412747785449028,0.12323634326457977,-0.08766534924507141,0.01,0.0,0.0,0.0,0.01,0.0,0.0,0.0,0.01,0.0649985820055008,0.02600860595703125,-0.019624412059783936,0.01,0.0,0.0,0.0,0.01,0.0,0.0,0.0,0.01
1700026357.4553092,38855,1700026357,437282304,sensor_wgs84,0.6600040793418884,0.21994127333164215,0.2351190149784088,0.6787779331207275,1.6295436408510531e-06,0.0,0.0,0.0,1.9275439453382044e-06,0.0,0.0,0.0,5.5644027203428405e-05,-0.054430294781923294,0.1058845967054367,-0.10705266147851944,0.01,0.0,0.0,0.0,0.01,0.0,0.0,0.0,0.01,0.09631572663784027,0.17359542846679688,0.0017661452293395996,0.01,0.0,0.0,0.0,0.01,0.0,0.0,0.0,0.01
1700026357.4747152,38856,1700026357,447300352,sensor_wgs84,0.6595664620399475,0.2205883413553238,0.23508886992931366,0.679003894329071,1.6295436408510531e-06,0.0,0.0,0.0,1.9275439453382044e-06,0.0,0.0,0.0,5.5644027203428405e-05,-0.058357663452625275,0.08461585640907288,-0.13255079090595245,0.01,0.0,0.0,0.0,0.01,0.0,0.0,0.0,0.01,0.13936017453670502,0.33035945892333984,0.1372692584991455,0.01,0.0,0.0,0.0,0.01,0.0,0.0,0.0,0.01
1700026357.4747336,38857,1700026357,457315328,sensor_wgs84,0.6591065526008606,0.2212965488433838,0.23497052490711212,0.6792609095573425,1.6248198383825492e-06,0.0,0.0,0.0,1.9272814730079843e-06,0.0,0.0,0.0,5.5532670826435046e-05,-0.053795523941516876,0.08914566785097122,-0.14107276499271393,0.01,0.0,0.0,0.0,0.01,0.0,0.0,0.0,0.01,0.13373005390167236,0.2711324691772461,0.1780364066362381,0.01,0.0,0.0,0.0,0.01,0.0,0.0,0.0,0.01
1700026357.4847782,38858,1700026357,467331584,sensor_wgs84,0.6586827635765076,0.22202035784721375,0.2347901612520218,0.6794980764389038,1.6248198383825492e-06,0.0,0.0,0.0,1.9272814730079843e-06,0.0,0.0,0.0,5.5532670826435046e-05,-0.04391991347074509,0.08254880458116531,-0.15428762137889862,0.01,0.0,0.0,0.0,0.01,0.0,0.0,0.0,0.01,0.15547245740890503,0.33008289337158203,0.2184981405735016,0.01,0.0,0.0,0.0,0.01,0.0,0.0,0.0,0.01
1700026357.4911487,38859,1700026357,477343488,sensor_wgs84,0.6583011746406555,0.22274351119995117,0.23454369604587555,0.6797162890434265,1.6248198383825492e-06,0.0,0.0,0.0,1.9272814730079843e-06,0.0,0.0,0.0,5.5532670826435046e-05,-0.03336894512176514,0.07219525426626205,-0.15590453147888184,0.01,0.0,0.0,0.0,0.01,0.0,0.0,0.0,0.01,0.14266234636306763,0.32334423065185547,0.1803993582725525,0.01,0.0,0.0,0.0,0.01,0.0,0.0,0.0,0.01
1700026357.5032392,38860,1700026357,487357696,sensor_wgs84,0.6579428315162659,0.2234535962343216,0.23422561585903168,0.679939866065979,1.6248198383825492e-06,0.0,0.0,0.0,1.9272814730079843e-06,0.0,0.0,0.0,5.5532670826435046e-05,-0.0316925123333931,0.05764961987733841,-0.16366514563560486,0.01,0.0,0.0,0.0,0.01,0.0,0.0,0.0,0.01,0.10508465021848679,0.3020801544189453,0.20280739665031433,0.01,0.0,0.0,0.0,0.01,0.0,0.0,0.0,0.01
1700026357.5150905,38861,1700026357,497373696,sensor_wgs84,0.6575846672058105,0.22415776550769806,0.2338506281375885,0.6801835894584656,1.6248198383825492e-06,0.0,0.0,0.0,1.9272814730079843e-06,0.0,0.0,0.0,5.5532670826435046e-05,-0.0319998674094677,0.05339984595775604,-0.17767375707626343,0.01,0.0,0.0,0.0,0.01,0.0,0.0,0.0,0.01,0.12937426567077637,0.3557605743408203,0.24980077147483826,0.01,0.0,0.0,0.0,0.01,0.0,0.0,0.0,0.01
1700026357.5249465,38862,1700026357,507386368,sensor_wgs84,0.6571800112724304,0.22490383684635162,0.23344314098358154,0.6804682612419128,1.6248198383825492e-06,0.0,0.0,0.0,1.9272814730079843e-06,0.0,0.0,0.0,5.5532670826435046e-05,-0.04059489071369171,0.04970378428697586,-0.1860203742980957,0.01,0.0,0.0,0.0,0.01,0.0,0.0,0.0,0.01,0.1650553196668625,0.3093442916870117,0.17319531738758087,0.01,0.0,0.0,0.0,0.01,0.0,0.0,0.0,0.01
1700026357.5391612,38863,1700026357,517406976,sensor_wgs84,0.6567816138267517,0.2256329208612442,0.23303738236427307,0.6807506084442139,1.6248198383825492e-06,0.0,0.0,0.0,1.9272814730079843e-06,0.0,0.0,0.0,5.5532670826435046e-05,-0.03495239093899727,0.04932080954313278,-0.1716279536485672,0.01,0.0,0.0,0.0,0.01,0.0,0.0,0.0,0.01,0.21336603164672852,0.1747426986694336,0.09202241897583008,0.01,0.0,0.0,0.0,0.01,0.0,0.0,0.0,0.01
1700026357.5465653,38864,1700026357,527424512,sensor_wgs84,0.6564883589744568,0.2262868881225586,0.23268283903598785,0.6809375882148743,1.6248198383825492e-06,0.0,0.0,0.0,1.9272814730079843e-06,0.0,0.0,0.0,5.5532670826435046e-05,-0.004692954011261463,0.04763595387339592,-0.13182656466960907,0.01,0.0,0.0,0.0,0.01,0.0,0.0,0.0,0.01,0.266803115606308,0.008795738220214844,-0.004075348377227783,0.01,0.0,0.0,0.0,0.01,0.0,0.0,0.0,0.01
1700026357.5520902,38865,1700026357,537437440,sensor_wgs84,0.6563321352005005,0.2267843782901764,0.23242966830730438,0.6810091137886047,1.6248198383825492e-06,0.0,0.0,0.0,1.9272814730079843e-06,0.0,0.0,0.0,5.5532670826435046e-05,0.015267564915120602,0.02768021635711193,-0.0867447555065155,0.01,0.0,0.0,0.0,0.01,0.0,0.0,0.0,0.01,0.302202045917511,-0.019147872924804688,-0.2584800720214844,0.01,0.0,0.0,0.0,0.01,0.0,0.0,0.0,0.01
1700026357.5643628,38866,1700026357,547452416,sensor_wgs84,0.656298816204071,0.22707051038742065,0.23221369087696075,0.68101966381073,1.6248198383825492e-06,0.0,0.0,0.0,1.9272814730079843e-06,0.0,0.0,0.0,5.5532670826435046e-05,0.02010665088891983,-0.005928783677518368,-0.05620264261960983,0.01,0.0,0.0,0.0,0.01,0.0,0.0,0.0,0.01,0.26838812232017517,-0.09171199798583984,-0.46027615666389465,0.01,0.0,0.0,0.0,0.01,0.0,0.0,0.0,0.01
1700026357.5768278,38867,1700026357,557468928,sensor_wgs84,0.6563287377357483,0.22714070975780487,0.23199181258678436,0.6810430288314819,1.6248198383825492e-06,0.0,0.0,0.0,1.9272814730079843e-06,0.0,0.0,0.0,5.5532670826435046e-05,0.012236068025231361,-0.0355377197265625,-0.028238516300916672,0.01,0.0,0.0,0.0,0.01,0.0,0.0,0.0,0.01,0.2578812837600708,-0.07478809356689453,-0.36897510290145874,0.01,0.0,0.0,0.0,0.01,0.0,0.0,0.0,0.01
1700026357.5857742,38868,1700026357,567482368,sensor_wgs84,0.656372606754303,0.22705741226673126,0.231745183467865,0.6811124086380005,1.6248198383825492e-06,0.0,0.0,0.0,1.9272814730079843e-06,0.0,0.0,0.0,5.5532670826435046e-05,-0.006783823482692242,-0.061760444194078445,-0.01896643079817295,0.01,0.0,0.0,0.0,0.01,0.0,0.0,0.0,0.01,0.2536802887916565,0.014215469360351562,-0.27125006914138794,0.01,0.0,0.0,0.0,0.01,0.0,0.0,0.0,0.01
1700026357.5921924,38869,1700026357,577496064,sensor_wgs84,0.6563743948936462,0.22689270973205566,0.23147240281105042,0.6812583208084106,1.6248198383825492e-06,0.0,0.0,0.0,1.9272814730079843e-06,0.0,0.0,0.0,5.5532670826435046e-05,-0.01991468295454979,-0.07249599695205688,-0.022299958392977715,0.01,0.0,0.0,0.0,0.01,0.0,0.0,0.0,0.01,0.2559282183647156,0.049060821533203125,-0.1730925738811493,0.01,0.0,0.0,0.0,0.01,0.0,0.0,0.0,0.01
1700026357.604891,38870,1700026357,587511552,sensor_wgs84,0.6564274430274963,0.22651329636573792,0.23093581199645996,0.6815155744552612,1.6248198383825492e-06,0.0,0.0,0.0,1.9272814730079843e-06,0.0,0.0,0.0,5.5532670826435046e-05,-0.02809605561196804,-0.07352124154567719,-0.01091007236391306,0.01,0.0,0.0,0.0,0.01,0.0,0.0,0.0,0.01,0.23200513422489166,-0.07529926300048828,-0.1293739378452301,0.01,0.0,0.0,0.0,0.01,0.0,0.0,0.0,0.01
1700026357.6114855,38871,1700026357,597524480,sensor_wgs84,0.6564427614212036,0.22621816396713257,0.23074400424957275,0.6816637516021729,1.6248198383825492e-06,0.0,0.0,0.0,1.9272814730079843e-06,0.0,0.0,0.0,5.5532670826435046e-05,-0.01493152230978012,-0.07283539324998856,0.026232898235321045,0.01,0.0,0.0,0.0,0.01,0.0,0.0,0.0,0.01,0.24479715526103973,-0.16765499114990234,-0.006955832242965698,0.01,0.0,0.0,0.0,0.01,0.0,0.0,0.0,0.01
1700026357.6319964,38872,1700026357,607545088,sensor_wgs84,0.656539261341095,0.22580647468566895,0.23068714141845703,0.6817266345024109,1.6248198383825492e-06,0.0,0.0,0.0,1.9272814730079843e-06,0.0,0.0,0.0,5.5532670826435046e-05,-0.008466008119285107,-0.07240668684244156,0.07115478813648224,0.01,0.0,0.0,0.0,0.01,0.0,0.0,0.0,0.01,0.25123751163482666,-0.30289554595947266,0.060964763164520264,0.01,0.0,0.0,0.0,0.01,0.0,0.0,0.0,0.01
1700026357.6395218,38873,1700026357,617562368,sensor_wgs84,0.6566929817199707,0.22524836659431458,0.23078300058841705,0.6817306876182556,1.6248198383825492e-06,0.0,0.0,0.0,1.9272814730079843e-06,0.0,0.0,0.0,5.5532670826435046e-05,-0.010159225203096867,-0.07523944228887558,0.11310850828886032,0.01,0.0,0.0,0.0,0.01,0.0,0.0,0.0,0.01,0.26228830218315125,-0.2841215133666992,0.01435592770576477,0.01,0.0,0.0,0.0,0.01,0.0,0.0,0.0,0.01
1700026357.6415577,38874,1700026357,627575296,sensor_wgs84,0.6568400263786316,0.2245471328496933,0.23099792003631592,0.681747555732727,1.6248198383825492e-06,0.0,0.0,0.0,1.9272814730079843e-06,0.0,0.0,0.0,5.5532670826435046e-05,-0.03338510915637016,-0.07693565636873245,0.13721556961536407,0.01,0.0,0.0,0.0,0.01,0.0,0.0,0.0,0.01,0.2796138823032379,-0.15396499633789062,0.0726180374622345,0.01,0.0,0.0,0.0,0.01,0.0,0.0,0.0,0.01
1700026357.6530404,38875,1700026357,637589760,sensor_wgs84,0.6569233536720276,0.22376728057861328,0.23127959668636322,0.6818282008171082,1.6248198383825492e-06,0.0,0.0,0.0,1.9272814730079843e-06,0.0,0.0,0.0,5.5532670826435046e-05,-0.0575837679207325,-0.07398553937673569,0.1429307758808136,0.01,0.0,0.0,0.0,0.01,0.0,0.0,0.0,0.01,0.29722753167152405,-0.05797863006591797,0.20430190861225128,0.01,0.0,0.0,0.0,0.01,0.0,0.0,0.0,0.01
1700026357.6659718,38876,1700026357,647606528,sensor_wgs84,0.6569437384605408,0.22296476364135742,0.23163384199142456,0.6819511651992798,1.6248198383825492e-06,0.0,0.0,0.0,1.9272814730079843e-06,0.0,0.0,0.0,5.5532670826435046e-05,-0.07026698440313339,-0.0645180493593216,0.15688258409500122,0.01,0.0,0.0,0.0,0.01,0.0,0.0,0.0,0.01,0.33475616574287415,-0.009489059448242188,0.2270275354385376,0.01,0.0,0.0,0.0,0.01,0.0,0.0,0.0,0.01
1700026357.6789715,38877,1700026357,657624064,sensor_wgs84,0.6569246649742126,0.2221735119819641,0.23210503160953522,0.6820676922798157,1.6155786488614154e-06,0.0,0.0,0.0,1.919251751056721e-06,0.0,0.0,0.0,5.5452442902774674e-05,-0.07702476531267166,-0.03143564611673355,0.17180795967578888,0.01,0.0,0.0,0.0,0.01,0.0,0.0,0.0,0.01,0.49852684140205383,-0.15502452850341797,0.4562681019306183,0.01,0.0,0.0,0.0,0.01,0.0,0.0,0.0,0.01
1700026357.691342,38878,1700026357,667639296,sensor_wgs84,0.656864583492279,0.2214147299528122,0.23277677595615387,0.6821433305740356,1.6155786488614154e-06,0.0,0.0,0.0,1.919251751056721e-06,0.0,0.0,0.0,5.5452442902774674e-05,-0.09127185493707657,0.0018598714377731085,0.20496392250061035,0.01,0.0,0.0,0.0,0.01,0.0,0.0,0.0,0.01,0.6262704133987427,-0.44058704376220703,0.4060109853744507,0.01,0.0,0.0,0.0,0.01,0.0,0.0,0.0,0.01
1700026357.6983209,38879,1700026357,677656320,sensor_wgs84,0.6567549705505371,0.2205030918121338,0.23368024826049805,0.6822353005409241,1.6155786488614154e-06,0.0,0.0,0.0,1.919251751056721e-06,0.0,0.0,0.0,5.5452442902774674e-05,-0.12990015745162964,-0.020767565816640854,0.2671506106853485,0.01,0.0,0.0,0.0,0.01,0.0,0.0,0.0,0.01,0.6308605074882507,-0.7589168548583984,-0.07075998187065125,0.01,0.0,0.0,0.0,0.01,0.0,0.0,0.0,0.01
1700026357.7040446,38880,1700026357,687669504,sensor_wgs84,0.6566535234451294,0.21923358738422394,0.2347961813211441,0.6823589205741882,1.6155786488614154e-06,0.0,0.0,0.0,1.919251751056721e-06,0.0,0.0,0.0,5.5452442902774674e-05,-0.14859043061733246,-0.04618821293115616,0.35905951261520386,0.01,0.0,0.0,0.0,0.01,0.0,0.0,0.0,0.01,0.6413860321044922,-0.9192686080932617,-0.2678481340408325,0.01,0.0,0.0,0.0,0.01,0.0,0.0,0.0,0.01
1700026357.7193754,38881,1700026357,697689088,sensor_wgs84,0.6566778421401978,0.21752066910266876,0.2361191064119339,0.6824271082878113,1.6155786488614154e-06,0.0,0.0,0.0,1.919251751056721e-06,0.0,0.0,0.0,5.5452442902774674e-05,-0.1416926085948944,-0.08775915205478668,0.4523210823535919,0.01,0.0,0.0,0.0,0.01,0.0,0.0,0.0,0.01,0.5921357274055481,-0.8478612899780273,-0.3631574511528015,0.01,0.0,0.0,0.0,0.01,0.0,0.0,0.0,0.01
1700026357.7257664,38882,1700026357,707705088,sensor_wgs84,0.6568551063537598,0.21537289023399353,0.2375662922859192,0.6824355125427246,1.6155786488614154e-06,0.0,0.0,0.0,1.919251751056721e-06,0.0,0.0,0.0,5.5452442902774674e-05,-0.13562887907028198,-0.12615346908569336,0.5151568651199341,0.01,0.0,0.0,0.0,0.01,0.0,0.0,0.0,0.01,0.5310273170471191,-0.5763139724731445,-0.3335219919681549,0.01,0.0,0.0,0.0,0.01,0.0,0.0,0.0,0.01
1700026357.7390182,38883,1700026357,717717760,sensor_wgs84,0.6571094393730164,0.21299533545970917,0.2390236258506775,0.6824280619621277,1.6155786488614154e-06,0.0,0.0,0.0,1.919251751056721e-06,0.0,0.0,0.0,5.5452442902774674e-05,-0.1394377499818802,-0.15882493555545807,0.5210168957710266,0.01,0.0,0.0,0.0,0.01,0.0,0.0,0.0,0.01,0.4844108819961548,-0.061298370361328125,-0.19991013407707214,0.01,0.0,0.0,0.0,0.01,0.0,0.0,0.0,0.01
1700026357.7434042,38884,1700026357,727732480,sensor_wgs84,0.6573708653450012,0.21064649522304535,0.2403077930212021,0.6824543476104736,1.6155786488614154e-06,0.0,0.0,0.0,1.919251751056721e-06,0.0,0.0,0.0,5.5452442902774674e-05,-0.1295919567346573,-0.1764080673456192,0.45910733938217163,0.01,0.0,0.0,0.0,0.01,0.0,0.0,0.0,0.01,0.3540816903114319,0.3694906234741211,-0.23755097389221191,0.01,0.0,0.0,0.0,0.01,0.0,0.0,0.0,0.01
1700026357.7552946,38885,1700026357,737748992,sensor_wgs84,0.6576089859008789,0.2084643393754959,0.24123185873031616,0.6825689077377319,1.6155786488614154e-06,0.0,0.0,0.0,1.919251751056721e-06,0.0,0.0,0.0,5.5452442902774674e-05,-0.12111353874206543,-0.2018231600522995,0.3721137046813965,0.01,0.0,0.0,0.0,0.01,0.0,0.0,0.0,0.01,0.14717724919319153,0.5285892486572266,-0.2500114142894745,0.01,0.0,0.0,0.0,0.01,0.0,0.0,0.0,0.01
1700026357.7641265,38886,1700026357,747762432,sensor_wgs84,0.6578473448753357,0.2065264731645584,0.2417331337928772,0.6827509999275208,1.6155786488614154e-06,0.0,0.0,0.0,1.919251751056721e-06,0.0,0.0,0.0,5.5452442902774674e-05,-0.09109187871217728,-0.22885990142822266,0.27735593914985657,0.01,0.0,0.0,0.0,0.01,0.0,0.0,0.0,0.01,-0.0021272599697113037,0.4059562683105469,-0.21240350604057312,0.01,0.0,0.0,0.0,0.01,0.0,0.0,0.0,0.01
1700026357.7748804,38887,1700026357,757777664,sensor_wgs84,0.6580944061279297,0.20485885441303253,0.24188674986362457,0.6829608678817749,1.6155786488614154e-06,0.0,0.0,0.0,1.919251751056721e-06,0.0,0.0,0.0,5.5452442902774674e-05,-0.07178258895874023,-0.22564010322093964,0.20370155572891235,0.01,0.0,0.0,0.0,0.01,0.0,0.0,0.0,0.01,-0.23226457834243774,0.20186710357666016,-0.08703792095184326,0.01,0.0,0.0,0.0,0.01,0.0,0.0,0.0,0.01
1700026357.785233,38888,1700026357,767793664,sensor_wgs84,0.6583049893379211,0.20351535081863403,0.24178865551948547,0.6831942200660706,1.6155786488614154e-06,0.0,0.0,0.0,1.919251751056721e-06,0.0,0.0,0.0,5.5452442902774674e-05,-0.06110462546348572,-0.20781783759593964,0.11990420520305634,0.01,0.0,0.0,0.0,0.01,0.0,0.0,0.0,0.01,-0.2888728678226471,0.3220252990722656,0.03432700037956238,0.01,0.0,0.0,0.0,0.01,0.0,0.0,0.0,0.01
1700026357.7965682,38889,1700026357,777806336,sensor_wgs84,0.6583918929100037,0.20254738628864288,0.24150396883487701,0.683498740196228,1.6155786488614154e-06,0.0,0.0,0.0,1.919251751056721e-06,0.0,0.0,0.0,5.5452442902774674e-05,-0.0603402778506279,-0.16622459888458252,0.03668759763240814,0.01,0.0,0.0,0.0,0.01,0.0,0.0,0.0,0.01,-0.4872482419013977,0.12430095672607422,0.163041353225708,0.01,0.0,0.0,0.0,0.01,0.0,0.0,0.0,0.01
1700026357.8099568,38890,1700026357,787826688,sensor_wgs84,0.6583489775657654,0.20194260776042938,0.24116085469722748,0.6838400959968567,1.6155786488614154e-06,0.0,0.0,0.0,1.919251751056721e-06,0.0,0.0,0.0,5.5452442902774674e-05,-0.06730338931083679,-0.11078400909900665,-0.016083141788840294,0.01,0.0,0.0,0.0,0.01,0.0,0.0,0.0,0.01,-0.5548374652862549,0.021201133728027344,0.34066998958587646,0.01,0.0,0.0,0.0,0.01,0.0,0.0,0.0,0.01
1700026357.815665,38891,1700026357,797842432,sensor_wgs84,0.6581858396530151,0.20169547200202942,0.24081726372241974,0.6841910481452942,1.6155786488614154e-06,0.0,0.0,0.0,1.919251751056721e-06,0.0,0.0,0.0,5.5452442902774674e-05,-0.06655509769916534,-0.05595433712005615,-0.06719008833169937,0.01,0.0,0.0,0.0,0.01,0.0,0.0,0.0,0.01,-0.5577665567398071,0.22097301483154297,0.4674745202064514,0.01,0.0,0.0,0.0,0.01,0.0,0.0,0.0,0.01
1700026357.8239145,38892,1700026357,807854080,sensor_wgs84,0.6578909158706665,0.2018202692270279,0.24046380817890167,0.6845622062683105,1.6155786488614154e-06,0.0,0.0,0.0,1.919251751056721e-06,0.0,0.0,0.0,5.5452442902774674e-05,-0.07044615596532822,-0.003118723165243864,-0.12070206552743912,0.01,0.0,0.0,0.0,0.01,0.0,0.0,0.0,0.01,-0.5784181356430054,0.39989185333251953,0.46457892656326294,0.01,0.0,0.0,0.0,0.01,0.0,0.0,0.0,0.01
1700026357.8342645,38893,1700026357,817868544,sensor_wgs84,0.6575026512145996,0.20227110385894775,0.24006038904190063,0.684943675994873,1.6155786488614154e-06,0.0,0.0,0.0,1.919251751056721e-06,0.0,0.0,0.0,5.5452442902774674e-05,-0.05472130700945854,0.029725030064582825,-0.17424200475215912,0.01,0.0,0.0,0.0,0.01,0.0,0.0,0.0,0.01,-0.5297446250915527,0.43718910217285156,0.5061797499656677,0.01,0.0,0.0,0.0,0.01,0.0,0.0,0.0,0.01
1700026357.846492,38894,1700026357,827885056,sensor_wgs84,0.6570668816566467,0.20303070545196533,0.23959414660930634,0.6853001713752747,1.6155786488614154e-06,0.0,0.0,0.0,1.919251751056721e-06,0.0,0.0,0.0,5.5452442902774674e-05,-0.04396000877022743,0.05888937786221504,-0.2189958244562149,0.01,0.0,0.0,0.0,0.01,0.0,0.0,0.0,0.01,-0.4715738594532013,0.3450307846069336,0.34842491149902344,0.01,0.0,0.0,0.0,0.01,0.0,0.0,0.0,0.01
1700026357.8604097,38895,1700026357,837897984,sensor_wgs84,0.6567156910896301,0.20379704236984253,0.2387910932302475,0.6856895685195923,1.6155786488614154e-06,0.0,0.0,0.0,1.919251751056721e-06,0.0,0.0,0.0,5.5452442902774674e-05,-0.026748035103082657,0.07345743477344513,-0.24507220089435577,0.01,0.0,0.0,0.0,0.01,0.0,0.0,0.0,0.01,-0.38034576177597046,0.3024101257324219,0.1364206075668335,0.01,0.0,0.0,0.0,0.01,0.0,0.0,0.0,0.01
1700026357.8632038,38896,1700026357,847911680,sensor_wgs84,0.6562749147415161,0.2048816680908203,0.23817813396453857,0.6860015392303467,1.6155786488614154e-06,0.0,0.0,0.0,1.919251751056721e-06,0.0,0.0,0.0,5.5452442902774674e-05,-0.021231574937701225,0.0789613425731659,-0.26971435546875,0.01,0.0,0.0,0.0,0.01,0.0,0.0,0.0,0.01,-0.2850196659564972,0.16861820220947266,0.09298577904701233,0.01,0.0,0.0,0.0,0.01,0.0,0.0,0.0,0.01
1700026357.8750925,38897,1700026357,857927424,sensor_wgs84,0.6558354496955872,0.20601637661457062,0.2375147044658661,0.6863119006156921,1.6134695788418883e-06,0.0,0.0,0.0,1.9167882086733925e-06,0.0,0.0,0.0,5.551611265125337e-05,-0.02330792509019375,0.06802520155906677,-0.2740079164505005,0.01,0.0,0.0,0.0,0.01,0.0,0.0,0.0,0.01,-0.25114965438842773,0.007952690124511719,-0.10495507717132568,0.01,0.0,0.0,0.0,0.01,0.0,0.0,0.0,0.01
1700026357.8838837,38898,1700026357,867939840,sensor_wgs84,0.6553964018821716,0.20708800852298737,0.23679885268211365,0.6866559982299805,1.6134695788418883e-06,0.0,0.0,0.0,1.9167882086733925e-06,0.0,0.0,0.0,5.551611265125337e-05,-0.028010893613100052,0.049854472279548645,-0.26997512578964233,0.01,0.0,0.0,0.0,0.01,0.0,0.0,0.0,0.01,-0.19163578748703003,-0.036876678466796875,-0.196794331073761,0.01,0.0,0.0,0.0,0.01,0.0,0.0,0.0,0.01
1700026357.9003909,38899,1700026357,877959936,sensor_wgs84,0.6549668908119202,0.2080676555633545,0.23604457080364227,0.687029242515564,1.6134695788418883e-06,0.0,0.0,0.0,1.9167882086733925e-06,0.0,0.0,0.0,5.551611265125337e-05,-0.0319100022315979,0.031032420694828033,-0.2660803496837616,0.01,0.0,0.0,0.0,0.01,0.0,0.0,0.0,0.01,-0.16051837801933289,-0.06525707244873047,-0.14155644178390503,0.01,0.0,0.0,0.0,0.01,0.0,0.0,0.0,0.01
1700026357.9069233,38900,1700026357,887976960,sensor_wgs84,0.654565691947937,0.20895804464817047,0.23526138067245483,0.6874099373817444,1.6134695788418883e-06,0.0,0.0,0.0,1.9167882086733925e-06,0.0,0.0,0.0,5.551611265125337e-05,-0.031337376683950424,0.017536796629428864,-0.2553423047065735,0.01,0.0,0.0,0.0,0.01,0.0,0.0,0.0,0.01,-0.16691024601459503,-0.1270589828491211,-0.12876242399215698,0.01,0.0,0.0,0.0,0.01,0.0,0.0,0.0,0.01
1700026357.9186182,38901,1700026357,897989888,sensor_wgs84,0.6541964411735535,0.20974703133106232,0.23447763919830322,0.6877889037132263,1.6134695788418883e-06,0.0,0.0,0.0,1.9167882086733925e-06,0.0,0.0,0.0,5.551611265125337e-05,-0.031742893159389496,-0.0005396399646997452,-0.23424872756004333,0.01,0.0,0.0,0.0,0.01,0.0,0.0,0.0,0.01,-0.1616641879081726,-0.17162227630615234,-0.07186627388000488,0.01,0.0,0.0,0.0,0.01,0.0,0.0,0.0,0.01
1700026357.9231157,38902,1700026357,908004096,sensor_wgs84,0.653884768486023,0.2104204297065735,0.2337527722120285,0.688126266002655,1.6134695788418883e-06,0.0,0.0,0.0,1.9167882086733925e-06,0.0,0.0,0.0,5.551611265125337e-05,-0.01894768327474594,-0.007696043234318495,-0.1988438218832016,0.01,0.0,0.0,0.0,0.01,0.0,0.0,0.0,0.01,-0.17052730917930603,-0.29526424407958984,-0.028742849826812744,0.01,0.0,0.0,0.0,0.01,0.0,0.0,0.0,0.01
1700026357.935028,38903,1700026357,918020096,sensor_wgs84,0.6536712050437927,0.21094827353954315,0.2331545650959015,0.688370406627655,1.6134695788418883e-06,0.0,0.0,0.0,1.9167882086733925e-06,0.0,0.0,0.0,5.551611265125337e-05,-0.00401967391371727,-0.006149177439510822,-0.14442363381385803,0.01,0.0,0.0,0.0,0.01,0.0,0.0,0.0,0.01,-0.16298437118530273,-0.4162406921386719,0.09348317980766296,0.01,0.0,0.0,0.0,0.01,0.0,0.0,0.0,0.01
1700026357.943727,38904,1700026357,928031744,sensor_wgs84,0.6535016298294067,0.21134164929389954,0.23276065289974213,0.688543975353241,1.6134695788418883e-06,0.0,0.0,0.0,1.9167882086733925e-06,0.0,0.0,0.0,5.551611265125337e-05,-0.018162135034799576,0.005708963144570589,-0.09694147855043411,0.01,0.0,0.0,0.0,0.01,0.0,0.0,0.0,0.01,-0.17045947909355164,-0.45795536041259766,0.14856132864952087,0.01,0.0,0.0,0.0,0.01,0.0,0.0,0.0,0.01
1700026357.954209,38905,1700026357,938046464,sensor_wgs84,0.6533203125,0.21160520613193512,0.2325592041015625,0.6887032389640808,1.6134695788418883e-06,0.0,0.0,0.0,1.9167882086733925e-06,0.0,0.0,0.0,5.551611265125337e-05,-0.03727852553129196,0.016886964440345764,-0.06384839117527008,0.01,0.0,0.0,0.0,0.01,0.0,0.0,0.0,0.01,-0.16900905966758728,-0.3796825408935547,0.13366371393203735,0.01,0.0,0.0,0.0,0.01,0.0,0.0,0.0,0.01
1700026357.96638,38906,1700026357,948062464,sensor_wgs84,0.6530838012695312,0.2117680162191391,0.2324977070093155,0.6888982653617859,1.6134695788418883e-06,0.0,0.0,0.0,1.9167882086733925e-06,0.0,0.0,0.0,5.551611265125337e-05,-0.06007121875882149,0.018881935626268387,-0.035845670849084854,0.01,0.0,0.0,0.0,0.01,0.0,0.0,0.0,0.01,-0.16205273568630219,-0.3213672637939453,0.14121335744857788,0.01,0.0,0.0,0.0,0.01,0.0,0.0,0.0,0.01
1700026357.9773517,38907,1700026357,958075648,sensor_wgs84,0.6527845859527588,0.2118724137544632,0.23256906867027283,0.6891255974769592,1.6134695788418883e-06,0.0,0.0,0.0,1.9167882086733925e-06,0.0,0.0,0.0,5.551611265125337e-05,-0.07312247902154922,0.030496571213006973,-0.016252508386969566,0.01,0.0,0.0,0.0,0.01,0.0,0.0,0.0,0.01,-0.14332428574562073,-0.22833633422851562,0.2012406289577484,0.01,0.0,0.0,0.0,0.01,0.0,0.0,0.0,0.01
1700026357.9897888,38908,1700026357,968095744,sensor_wgs84,0.6524693965911865,0.211921826004982,0.23277777433395386,0.6893383860588074,1.6134695788418883e-06,0.0,0.0,0.0,1.9167882086733925e-06,0.0,0.0,0.0,5.551611265125337e-05,-0.077738456428051,0.04939479008316994,0.014862237498164177,0.01,0.0,0.0,0.0,0.01,0.0,0.0,0.0,0.01,-0.12603530287742615,-0.18678760528564453,0.23643016815185547,0.01,0.0,0.0,0.0,0.01,0.0,0.0,0.0,0.01
1700026357.995948,38909,1700026357,978110976,sensor_wgs84,0.6521938443183899,0.21194827556610107,0.233149915933609,0.6894651651382446,1.6134695788418883e-06,0.0,0.0,0.0,1.9167882086733925e-06,0.0,0.0,0.0,5.551611265125337e-05,-0.06397362053394318,0.06854593008756638,0.04341473430395126,0.01,0.0,0.0,0.0,0.01,0.0,0.0,0.0,0.01,-0.1115880087018013,-0.1245880126953125,0.14407873153686523,0.01,0.0,0.0,0.0,0.01,0.0,0.0,0.0,0.01
1700026358.0051517,38910,1700026357,988122880,sensor_wgs84,0.6519390344619751,0.211957186460495,0.23362882435321808,0.6895413398742676,1.6134695788418883e-06,0.0,0.0,0.0,1.9167882086733925e-06,0.0,0.0,0.0,5.551611265125337e-05,-0.06177489086985588,0.07349155843257904,0.052476197481155396,0.01,0.0,0.0,0.0,0.01,0.0,0.0,0.0,0.01,-0.09125948697328568,0.0071239471435546875,0.013963639736175537,0.01,0.0,0.0,0.0,0.01,0.0,0.0,0.0,0.01
1700026358.015751,38911,1700026357,998137088,sensor_wgs84,0.6516686677932739,0.21197640895843506,0.2341216802597046,0.6896237730979919,1.6134695788418883e-06,0.0,0.0,0.0,1.9167882086733925e-06,0.0,0.0,0.0,5.551611265125337e-05,-0.07284794002771378,0.08199706673622131,0.04139911010861397,0.01,0.0,0.0,0.0,0.01,0.0,0.0,0.0,0.01,-0.03411629796028137,0.13054370880126953,0.044384539127349854,0.01,0.0,0.0,0.0,0.01,0.0,0.0,0.0,0.01
1700026358.0273168,38912,1700026358,8153088,sensor_wgs84,0.6513453125953674,0.2120390683412552,0.23462244868278503,0.6897398829460144,1.6134695788418883e-06,0.0,0.0,0.0,1.9167882086733925e-06,0.0,0.0,0.0,5.551611265125337e-05,-0.08195871859788895,0.08869487047195435,0.03710784390568733,0.01,0.0,0.0,0.0,0.01,0.0,0.0,0.0,0.01,0.019929058849811554,0.13973331451416016,0.0755760669708252,0.01,0.0,0.0,0.0,0.01,0.0,0.0,0.0,0.01
1700026358.035307,38913,1700026358,18164480,sensor_wgs84,0.6510141491889954,0.21213382482528687,0.23513002693653107,0.6898505687713623,1.6134695788418883e-06,0.0,0.0,0.0,1.9167882086733925e-06,0.0,0.0,0.0,5.551611265125337e-05,-0.07827680557966232,0.09352803230285645,0.04289523884654045,0.01,0.0,0.0,0.0,0.01,0.0,0.0,0.0,0.01,0.04900459945201874,0.11911964416503906,-0.030384600162506104,0.01,0.0,0.0,0.0,0.01,0.0,0.0,0.0,0.01
1700026358.0456548,38914,1700026358,28178688,sensor_wgs84,0.650722324848175,0.21220135688781738,0.23562626540660858,0.6899358630180359,1.6134695788418883e-06,0.0,0.0,0.0,1.9167882086733925e-06,0.0,0.0,0.0,5.551611265125337e-05,-0.06639229506254196,0.07358016073703766,0.04499652609229088,0.01,0.0,0.0,0.0,0.01,0.0,0.0,0.0,0.01,0.09978899359703064,0.23083877563476562,-0.16804927587509155,0.01,0.0,0.0,0.0,0.01,0.0,0.0,0.0,0.01
1700026358.0558379,38915,1700026358,38194944,sensor_wgs84,0.6504515409469604,0.21226318180561066,0.23605968058109283,0.6900239586830139,1.6134695788418883e-06,0.0,0.0,0.0,1.9167882086733925e-06,0.0,0.0,0.0,5.551611265125337e-05,-0.06382156908512115,0.0678679496049881,0.028445569798350334,0.01,0.0,0.0,0.0,0.01,0.0,0.0,0.0,0.01,0.11961387097835541,0.33384227752685547,-0.2303367257118225,0.01,0.0,0.0,0.0,0.01,0.0,0.0,0.0,0.01
1700026358.0657773,38916,1700026358,48207872,sensor_wgs84,0.6501904726028442,0.21233229339122772,0.23637160658836365,0.6901419758796692,1.616141280453461e-06,0.0,0.0,0.0,1.9267636920775483e-06,0.0,0.0,0.0,5.5499168408218663e-05,-0.06057742238044739,0.049777910113334656,0.004591938573867083,0.01,0.0,0.0,0.0,0.01,0.0,0.0,0.0,0.01,0.15087422728538513,0.44733715057373047,-0.19553649425506592,0.01,0.0,0.0,0.0,0.01,0.0,0.0,0.0,0.01
1700026358.0796025,38917,1700026358,58227456,sensor_wgs84,0.6499444842338562,0.21245624125003815,0.2365432232618332,0.6902766823768616,1.616141280453461e-06,0.0,0.0,0.0,1.9267636920775483e-06,0.0,0.0,0.0,5.5499168408218663e-05,-0.04731212928891182,0.04322739690542221,-0.01983245648443699,0.01,0.0,0.0,0.0,0.01,0.0,0.0,0.0,0.01,0.16042840480804443,0.4659700393676758,-0.14839130640029907,0.01,0.0,0.0,0.0,0.01,0.0,0.0,0.0,0.01
1700026358.0859694,38918,1700026358,68242688,sensor_wgs84,0.6497215628623962,0.21266409754753113,0.23659376800060272,0.6904052495956421,1.616141280453461e-06,0.0,0.0,0.0,1.9267636920775483e-06,0.0,0.0,0.0,5.5499168408218663e-05,-0.03156480938196182,0.03698926046490669,-0.04787334427237511,0.01,0.0,0.0,0.0,0.01,0.0,0.0,0.0,0.01,0.1672455370426178,0.4017772674560547,-0.20327472686767578,0.01,0.0,0.0,0.0,0.01,0.0,0.0,0.0,0.01
1700026358.0966887,38919,1700026358,78256128,sensor_wgs84,0.649526834487915,0.21292424201965332,0.23655329644680023,0.6905221343040466,1.616141280453461e-06,0.0,0.0,0.0,1.9267636920775483e-06,0.0,0.0,0.0,5.5499168408218663e-05,-0.022621653974056244,0.02868962101638317,-0.060336433351039886,0.01,0.0,0.0,0.0,0.01,0.0,0.0,0.0,0.01,0.20249927043914795,0.30510997772216797,-0.14140725135803223,0.01,0.0,0.0,0.0,0.01,0.0,0.0,0.0,0.01
1700026358.1051884,38920,1700026358,88269568,sensor_wgs84,0.6494309902191162,0.2130150943994522,0.23624786734580994,0.6906888484954834,1.616141280453461e-06,0.0,0.0,0.0,1.9267636920775483e-06,0.0,0.0,0.0,5.5499168408218663e-05,-0.019901085644960403,0.030396871268749237,-0.0716170072555542,0.01,0.0,0.0,0.0,0.01,0.0,0.0,0.0,0.01,0.2801031172275543,0.21146869659423828,-0.021040618419647217,0.01,0.0,0.0,0.0,0.01,0.0,0.0,0.0,0.01
1700026358.116536,38921,1700026358,98286592,sensor_wgs84,0.6492689847946167,0.21334995329380035,0.23611687123775482,0.6907824277877808,1.616141280453461e-06,0.0,0.0,0.0,1.9267636920775483e-06,0.0,0.0,0.0,5.5499168408218663e-05,-0.016194237396121025,0.033254075795412064,-0.06934091448783875,0.01,0.0,0.0,0.0,0.01,0.0,0.0,0.0,0.01,0.34547996520996094,0.0018625259399414062,0.002161741256713867,0.01,0.0,0.0,0.0,0.01,0.0,0.0,0.0,0.01
1700026358.1257317,38922,1700026358,108299008,sensor_wgs84,0.6490955948829651,0.21366077661514282,0.23599091172218323,0.6908924579620361,1.616141280453461e-06,0.0,0.0,0.0,1.9267636920775483e-06,0.0,0.0,0.0,5.5499168408218663e-05,-0.030572514981031418,0.023545129224658012,-0.06435420364141464,0.01,0.0,0.0,0.0,0.01,0.0,0.0,0.0,0.01,0.405017226934433,-0.13254928588867188,-0.11390244960784912,0.01,0.0,0.0,0.0,0.01,0.0,0.0,0.0,0.01
1700026358.1399822,38923,1700026358,118313216,sensor_wgs84,0.6488891243934631,0.21388237178325653,0.23584793508052826,0.691066563129425,1.616141280453461e-06,0.0,0.0,0.0,1.9267636920775483e-06,0.0,0.0,0.0,5.5499168408218663e-05,-0.044519245624542236,0.007444983813911676,-0.06218487396836281,0.01,0.0,0.0,0.0,0.01,0.0,0.0,0.0,0.01,0.41776275634765625,-0.2656688690185547,-0.15293121337890625,0.01,0.0,0.0,0.0,0.01,0.0,0.0,0.0,0.01
1700026358.1448817,38924,1700026358,128328960,sensor_wgs84,0.6486393213272095,0.2139819860458374,0.23570962250232697,0.6913173794746399,1.616141280453461e-06,0.0,0.0,0.0,1.9267636920775483e-06,0.0,0.0,0.0,5.5499168408218663e-05,-0.06619284301996231,-0.011052408255636692,-0.04602374508976936,0.01,0.0,0.0,0.0,0.01,0.0,0.0,0.0,0.01,0.4423549473285675,-0.24803924560546875,-0.08096855878829956,0.01,0.0,0.0,0.0,0.01,0.0,0.0,0.0,0.01
1700026358.1515958,38925,1700026358,138341376,sensor_wgs84,0.6483711004257202,0.21394746005535126,0.23560935258865356,0.6916138529777527,1.616141280453461e-06,0.0,0.0,0.0,1.9267636920775483e-06,0.0,0.0,0.0,5.5499168408218663e-05,-0.078879714012146,-0.025432942435145378,-0.020388970151543617,0.01,0.0,0.0,0.0,0.01,0.0,0.0,0.0,0.01,0.43590888381004333,-0.30150508880615234,-0.004114687442779541,0.01,0.0,0.0,0.0,0.01,0.0,0.0,0.0,0.01
1700026358.169442,38926,1700026358,148360704,sensor_wgs84,0.648137092590332,0.21379134058952332,0.23558248579502106,0.6918905377388,1.616141280453461e-06,0.0,0.0,0.0,1.9267636920775483e-06,0.0,0.0,0.0,5.5499168408218663e-05,-0.068928562104702,-0.026098860427737236,0.009004803374409676,0.01,0.0,0.0,0.0,0.01,0.0,0.0,0.0,0.01,0.4295525848865509,-0.24964427947998047,0.05495786666870117,0.01,0.0,0.0,0.0,0.01,0.0,0.0,0.0,0.01
1700026358.175145,38927,1700026358,158375424,sensor_wgs84,0.6479613184928894,0.2135501652956009,0.23563210666179657,0.6921126842498779,1.616141280453461e-06,0.0,0.0,0.0,1.9267636920775483e-06,0.0,0.0,0.0,5.5499168408218663e-05,-0.05986487492918968,-0.025809431448578835,0.030015889555215836,0.01,0.0,0.0,0.0,0.01,0.0,0.0,0.0,0.01,0.4281017482280731,-0.20410442352294922,0.08151185512542725,0.01,0.0,0.0,0.0,0.01,0.0,0.0,0.0,0.01
1700026358.181756,38928,1700026358,168387072,sensor_wgs84,0.6478443741798401,0.21324102580547333,0.23572970926761627,0.6922842264175415,1.616141280453461e-06,0.0,0.0,0.0,1.9267636920775483e-06,0.0,0.0,0.0,5.5499168408218663e-05,-0.04599831998348236,-0.031174231320619583,0.051958389580249786,0.01,0.0,0.0,0.0,0.01,0.0,0.0,0.0,0.01,0.418364018201828,-0.15210247039794922,0.013310253620147705,0.01,0.0,0.0,0.0,0.01,0.0,0.0,0.0,0.01
1700026358.193929,38929,1700026358,178401536,sensor_wgs84,0.6477632522583008,0.21286596357822418,0.23585331439971924,0.6924335360527039,1.616141280453461e-06,0.0,0.0,0.0,1.9267636920775483e-06,0.0,0.0,0.0,5.5499168408218663e-05,-0.05298305302858353,-0.046185098588466644,0.05791576951742172,0.01,0.0,0.0,0.0,0.01,0.0,0.0,0.0,0.01,0.400898277759552,-0.12534046173095703,-0.09446799755096436,0.01,0.0,0.0,0.0,0.01,0.0,0.0,0.0,0.01
1700026358.2065084,38930,1700026358,188418048,sensor_wgs84,0.6477024555206299,0.2124032825231552,0.2359522134065628,0.6925987601280212,1.616141280453461e-06,0.0,0.0,0.0,1.9267636920775483e-06,0.0,0.0,0.0,5.5499168408218663e-05,-0.06427229195833206,-0.06658479571342468,0.06308773905038834,0.01,0.0,0.0,0.0,0.01,0.0,0.0,0.0,0.01,0.3739279508590698,-0.10508060455322266,-0.14384931325912476,0.01,0.0,0.0,0.0,0.01,0.0,0.0,0.0,0.01
1700026358.2125864,38931,1700026358,198429696,sensor_wgs84,0.6476313471794128,0.21185606718063354,0.23600466549396515,0.6928148865699768,1.616141280453461e-06,0.0,0.0,0.0,1.9267636920775483e-06,0.0,0.0,0.0,5.5499168408218663e-05,-0.0718107596039772,-0.08858539909124374,0.06451009213924408,0.01,0.0,0.0,0.0,0.01,0.0,0.0,0.0,0.01,0.29283419251441956,-0.03896903991699219,-0.15413761138916016,0.01,0.0,0.0,0.0,0.01,0.0,0.0,0.0,0.01
1700026358.2238107,38932,1700026358,208443136,sensor_wgs84,0.6475769281387329,0.21122077107429504,0.23598308861255646,0.6930670738220215,1.616141280453461e-06,0.0,0.0,0.0,1.9267636920775483e-06,0.0,0.0,0.0,5.5499168408218663e-05,-0.06650976091623306,-0.10949718207120895,0.0661432296037674,0.01,0.0,0.0,0.0,0.01,0.0,0.0,0.0,0.01,0.23713386058807373,0.048684120178222656,-0.12338703870773315,0.01,0.0,0.0,0.0,0.01,0.0,0.0,0.0,0.01
1700026358.2368138,38933,1700026358,218459904,sensor_wgs84,0.6475573778152466,0.21053427457809448,0.2358972579240799,0.6933233737945557,1.616141280453461e-06,0.0,0.0,0.0,1.9267636920775483e-06,0.0,0.0,0.0,5.5499168408218663e-05,-0.05747564882040024,-0.12313929200172424,0.06343460083007812,0.01,0.0,0.0,0.0,0.01,0.0,0.0,0.0,0.01,0.15552954375743866,0.12297725677490234,-0.10409843921661377,0.01,0.0,0.0,0.0,0.01,0.0,0.0,0.0,0.01
1700026358.2422557,38934,1700026358,228470784,sensor_wgs84,0.647575855255127,0.20983651280403137,0.2357412427663803,0.6935707330703735,1.616141280453461e-06,0.0,0.0,0.0,1.9267636920775483e-06,0.0,0.0,0.0,5.5499168408218663e-05,-0.05278540030121803,-0.13339553773403168,0.05082361400127411,0.01,0.0,0.0,0.0,0.01,0.0,0.0,0.0,0.01,0.03248252719640732,0.2015838623046875,-0.031729936599731445,0.01,0.0,0.0,0.0,0.01,0.0,0.0,0.0,0.01
1700026358.258455,38935,1700026358,238489344,sensor_wgs84,0.6476269960403442,0.20916014909744263,0.2355106770992279,0.6938055157661438,1.616141280453461e-06,0.0,0.0,0.0,1.9267636920775483e-06,0.0,0.0,0.0,5.5499168408218663e-05,-0.03814426809549332,-0.13472336530685425,0.039658594876527786,0.01,0.0,0.0,0.0,0.01,0.0,0.0,0.0,0.01,-0.032680973410606384,0.23627567291259766,0.12334316968917847,0.01,0.0,0.0,0.0,0.01,0.0,0.0,0.0,0.01
1700026358.2656229,38936,1700026358,248505088,sensor_wgs84,0.647700309753418,0.20857752859592438,0.2352311909198761,0.6940072774887085,1.6104242303203537e-06,0.0,0.0,0.0,1.922025450144948e-06,0.0,0.0,0.0,5.545334448551543e-05,-0.026878077536821365,-0.12486469000577927,0.019925132393836975,0.01,0.0,0.0,0.0,0.01,0.0,0.0,0.0,0.01,-0.08619453012943268,0.22758007049560547,0.16664594411849976,0.01,0.0,0.0,0.0,0.01,0.0,0.0,0.0,0.01
1700026358.2737272,38937,1700026358,258517504,sensor_wgs84,0.6477644443511963,0.20810285210609436,0.23493565618991852,0.6941899657249451,1.6104242303203537e-06,0.0,0.0,0.0,1.922025450144948e-06,0.0,0.0,0.0,5.545334448551543e-05,-0.0204530730843544,-0.10276733338832855,0.0038712820969522,0.01,0.0,0.0,0.0,0.01,0.0,0.0,0.0,0.01,-0.1552511304616928,0.22322845458984375,0.1260843276977539,0.01,0.0,0.0,0.0,0.01,0.0,0.0,0.0,0.01
1700026358.283053,38938,1700026358,268530176,sensor_wgs84,0.6478211283683777,0.20774514973163605,0.23464082181453705,0.6943439841270447,1.6104242303203537e-06,0.0,0.0,0.0,1.922025450144948e-06,0.0,0.0,0.0,5.545334448551543e-05,-0.01233744341880083,-0.09058235585689545,-0.0011464994167909026,0.01,0.0,0.0,0.0,0.01,0.0,0.0,0.0,0.01,-0.17999032139778137,0.1506481170654297,0.1793445348739624,0.01,0.0,0.0,0.0,0.01,0.0,0.0,0.0,0.01
1700026358.2951922,38939,1700026358,278545664,sensor_wgs84,0.6478756666183472,0.2074744999408722,0.2343822866678238,0.6944613456726074,1.6104242303203537e-06,0.0,0.0,0.0,1.922025450144948e-06,0.0,0.0,0.0,5.545334448551543e-05,-0.010825314559042454,-0.07165975123643875,-0.006285371724516153,0.01,0.0,0.0,0.0,0.01,0.0,0.0,0.0,0.01,-0.16074079275131226,0.12115955352783203,0.14009219408035278,0.01,0.0,0.0,0.0,0.01,0.0,0.0,0.0,0.01
1700026358.3005514,38940,1700026358,288556800,sensor_wgs84,0.6478980779647827,0.2072838991880417,0.23416267335414886,0.6945713758468628,1.6104242303203537e-06,0.0,0.0,0.0,1.922025450144948e-06,0.0,0.0,0.0,5.545334448551543e-05,-0.010841891169548035,-0.05685366317629814,-0.010317744687199593,0.01,0.0,0.0,0.0,0.01,0.0,0.0,0.0,0.01,-0.1621968299150467,0.13603878021240234,0.04122817516326904,0.01,0.0,0.0,0.0,0.01,0.0,0.0,0.0,0.01
1700026358.314569,38941,1700026358,298571008,sensor_wgs84,0.6478978395462036,0.2071262001991272,0.23393188416957855,0.6946963667869568,1.6104242303203537e-06,0.0,0.0,0.0,1.922025450144948e-06,0.0,0.0,0.0,5.545334448551543e-05,-0.015967166051268578,-0.056661371141672134,-0.02178519405424595,0.01,0.0,0.0,0.0,0.01,0.0,0.0,0.0,0.01,-0.15779559314250946,0.10903453826904297,-0.005563259124755859,0.01,0.0,0.0,0.0,0.01,0.0,0.0,0.0,0.01
1700026358.324959,38942,1700026358,308585728,sensor_wgs84,0.6478651762008667,0.20699052512645721,0.23370198905467987,0.6948447227478027,1.6104242303203537e-06,0.0,0.0,0.0,1.922025450144948e-06,0.0,0.0,0.0,5.545334448551543e-05,-0.02561667189002037,-0.05441930890083313,-0.023114634677767754,0.01,0.0,0.0,0.0,0.01,0.0,0.0,0.0,0.01,-0.1529616266489029,0.06648731231689453,0.019712090492248535,0.01,0.0,0.0,0.0,0.01,0.0,0.0,0.0,0.01
1700026358.331702,38943,1700026358,318597376,sensor_wgs84,0.6478148102760315,0.2068508267402649,0.2335004210472107,0.695000946521759,1.6104242303203537e-06,0.0,0.0,0.0,1.922025450144948e-06,0.0,0.0,0.0,5.545334448551543e-05,-0.027676410973072052,-0.04279184713959694,-0.017124252393841743,0.01,0.0,0.0,0.0,0.01,0.0,0.0,0.0,0.01,-0.11408267915248871,0.04121208190917969,0.010364413261413574,0.01,0.0,0.0,0.0,0.01,0.0,0.0,0.0,0.01
1700026358.3574378,38944,1700026358,328617216,sensor_wgs84,0.647747278213501,0.20670388638973236,0.23335447907447815,0.6951565742492676,1.6104242303203537e-06,0.0,0.0,0.0,1.922025450144948e-06,0.0,0.0,0.0,5.545334448551543e-05,-0.030155465006828308,-0.04027814418077469,-0.003479227190837264,0.01,0.0,0.0,0.0,0.01,0.0,0.0,0.0,0.01,-0.13027134537696838,0.061142921447753906,-0.03460037708282471,0.01,0.0,0.0,0.0,0.01,0.0,0.0,0.0,0.01
1700026358.3574638,38945,1700026358,338633728,sensor_wgs84,0.6477634310722351,0.2063688486814499,0.23301587998867035,0.695354700088501,1.6104242303203537e-06,0.0,0.0,0.0,1.922025450144948e-06,0.0,0.0,0.0,5.545334448551543e-05,-0.020061945542693138,-0.035228826105594635,0.02141500636935234,0.01,0.0,0.0,0.0,0.01,0.0,0.0,0.0,0.01,-0.12330333888530731,0.04090309143066406,-0.0354534387588501,0.01,0.0,0.0,0.0,0.01,0.0,0.0,0.0,0.01
1700026358.3621147,38946,1700026358,348645120,sensor_wgs84,0.6478075385093689,0.20611487329006195,0.23302939534187317,0.6953843832015991,1.6104242303203537e-06,0.0,0.0,0.0,1.922025450144948e-06,0.0,0.0,0.0,5.545334448551543e-05,-0.0005844226107001305,-0.040085259824991226,0.051087647676467896,0.01,0.0,0.0,0.0,0.01,0.0,0.0,0.0,0.01,-0.16692514717578888,0.050632476806640625,-0.10986071825027466,0.01,0.0,0.0,0.0,0.01,0.0,0.0,0.0,0.01
1700026358.3738585,38947,1700026358,358658816,sensor_wgs84,0.6479417681694031,0.20579569041728973,0.23307959735393524,0.6953370571136475,1.6104242303203537e-06,0.0,0.0,0.0,1.922025450144948e-06,0.0,0.0,0.0,5.545334448551543e-05,0.011503748595714569,-0.043362777680158615,0.05679204314947128,0.01,0.0,0.0,0.0,0.01,0.0,0.0,0.0,0.01,-0.1557035744190216,0.19104671478271484,-0.0860491394996643,0.01,0.0,0.0,0.0,0.01,0.0,0.0,0.0,0.01
1700026358.3867705,38948,1700026358,368675072,sensor_wgs84,0.6481052041053772,0.2054928094148636,0.2331276834011078,0.6952581405639648,1.6104242303203537e-06,0.0,0.0,0.0,1.922025450144948e-06,0.0,0.0,0.0,5.545334448551543e-05,0.018289633095264435,-0.03376783803105354,0.05300365760922432,0.01,0.0,0.0,0.0,0.01,0.0,0.0,0.0,0.01,-0.15269336104393005,0.23270606994628906,-0.0010169148445129395,0.01,0.0,0.0,0.0,0.01,0.0,0.0,0.0,0.01
1700026358.3928518,38949,1700026358,378685696,sensor_wgs84,0.6482505798339844,0.20524862408638,0.2331487536430359,0.6951876282691956,1.6104242303203537e-06,0.0,0.0,0.0,1.922025450144948e-06,0.0,0.0,0.0,5.545334448551543e-05,0.012685840018093586,-0.04128623381257057,0.03520796820521355,0.01,0.0,0.0,0.0,0.01,0.0,0.0,0.0,0.01,-0.19880633056163788,0.18250560760498047,-0.10393017530441284,0.01,0.0,0.0,0.0,0.01,0.0,0.0,0.0,0.01
1700026358.4039583,38950,1700026358,388699392,sensor_wgs84,0.6483551859855652,0.20503123104572296,0.23311911523342133,0.695164144039154,1.6104242303203537e-06,0.0,0.0,0.0,1.922025450144948e-06,0.0,0.0,0.0,5.545334448551543e-05,0.009406722150743008,-0.03658953681588173,0.024490095674991608,0.01,0.0,0.0,0.0,0.01,0.0,0.0,0.0,0.01,-0.2320360541343689,0.12512779235839844,-0.13846784830093384,0.01,0.0,0.0,0.0,0.01,0.0,0.0,0.0,0.01
1700026358.4196408,38951,1700026358,398714880,sensor_wgs84,0.648452639579773,0.20484282076358795,0.23308143019676208,0.6951415538787842,1.6104242303203537e-06,0.0,0.0,0.0,1.922025450144948e-06,0.0,0.0,0.0,5.545334448551543e-05,0.014993189834058285,-0.029455410316586494,0.021994508802890778,0.01,0.0,0.0,0.0,0.01,0.0,0.0,0.0,0.01,-0.2548024654388428,0.09408378601074219,-0.030802130699157715,0.01,0.0,0.0,0.0,0.01,0.0,0.0,0.0,0.01
1700026358.4218225,38952,1700026358,408726784,sensor_wgs84,0.648542046546936,0.20471015572547913,0.23306719958782196,0.6951019763946533,1.6104242303203537e-06,0.0,0.0,0.0,1.922025450144948e-06,0.0,0.0,0.0,5.545334448551543e-05,0.007722004316747189,-0.013364173471927643,0.017683323472738266,0.01,0.0,0.0,0.0,0.01,0.0,0.0,0.0,0.01,-0.24513791501522064,0.14105701446533203,0.00010037422180175781,0.01,0.0,0.0,0.0,0.01,0.0,0.0,0.0,0.01
1700026358.439406,38953,1700026358,418745856,sensor_wgs84,0.6486100554466248,0.20465180277824402,0.23307055234909058,0.6950545907020569,1.6104242303203537e-06,0.0,0.0,0.0,1.922025450144948e-06,0.0,0.0,0.0,5.545334448551543e-05,0.014673654921352863,0.0008961346466094255,0.006073409225791693,0.01,0.0,0.0,0.0,0.01,0.0,0.0,0.0,0.01,-0.24615992605686188,0.15282535552978516,0.008474588394165039,0.01,0.0,0.0,0.0,0.01,0.0,0.0,0.0,0.01
1700026358.4460454,38954,1700026358,428761344,sensor_wgs84,0.648664116859436,0.20466828346252441,0.23307397961616516,0.6949980854988098,1.6104242303203537e-06,0.0,0.0,0.0,1.922025450144948e-06,0.0,0.0,0.0,5.545334448551543e-05,0.01651131547987461,0.008367646485567093,-0.0048421877436339855,0.01,0.0,0.0,0.0,0.01,0.0,0.0,0.0,0.01,-0.2670636773109436,0.11673927307128906,0.08467024564743042,0.01,0.0,0.0,0.0,0.01,0.0,0.0,0.0,0.01
1700026358.4556556,38955,1700026358,438772736,sensor_wgs84,0.6487190127372742,0.2047344595193863,0.23307956755161285,0.6949254870414734,1.6104242303203537e-06,0.0,0.0,0.0,1.922025450144948e-06,0.0,0.0,0.0,5.545334448551543e-05,0.02107374556362629,0.014316942542791367,-0.0016650825273245573,0.01,0.0,0.0,0.0,0.01,0.0,0.0,0.0,0.01,-0.24642343819141388,0.058234214782714844,0.09960824251174927,0.01,0.0,0.0,0.0,0.01,0.0,0.0,0.0,0.01
1700026358.4678707,38956,1700026358,448790272,sensor_wgs84,0.6487804651260376,0.20483535528182983,0.23310402035713196,0.6948302388191223,1.602515719647884e-06,0.0,0.0,0.0,1.914088836690224e-06,0.0,0.0,0.0,5.541135931489208e-05,0.027195120230317116,0.019310424104332924,-0.00375085580162704,0.01,0.0,0.0,0.0,0.01,0.0,0.0,0.0,0.01,-0.2448081523180008,0.020958900451660156,0.07815295457839966,0.01,0.0,0.0,0.0,0.01,0.0,0.0,0.0,0.01
1700026358.4743083,38957,1700026358,458804736,sensor_wgs84,0.6488373875617981,0.20495833456516266,0.233148992061615,0.6947256922721863,1.602515719647884e-06,0.0,0.0,0.0,1.914088836690224e-06,0.0,0.0,0.0,5.541135931489208e-05,0.02553080953657627,0.023636208847165108,-0.0056320377625525,0.01,0.0,0.0,0.0,0.01,0.0,0.0,0.0,0.01,-0.22857607901096344,0.03945636749267578,0.0185965895652771,0.01,0.0,0.0,0.0,0.01,0.0,0.0,0.0,0.01
1700026358.4809842,38958,1700026358,468815872,sensor_wgs84,0.6488854289054871,0.20509354770183563,0.23317691683769226,0.6946314573287964,1.602515719647884e-06,0.0,0.0,0.0,1.914088836690224e-06,0.0,0.0,0.0,5.541135931489208e-05,0.023818153887987137,0.024714335799217224,-0.0093495212495327,0.01,0.0,0.0,0.0,0.01,0.0,0.0,0.0,0.01,-0.22840893268585205,0.05527019500732422,-0.030286788940429688,0.01,0.0,0.0,0.0,0.01,0.0,0.0,0.0,0.01
1700026358.4935808,38959,1700026358,478828800,sensor_wgs84,0.6489038467407227,0.20524385571479797,0.2331673502922058,0.6945730447769165,1.602515719647884e-06,0.0,0.0,0.0,1.914088836690224e-06,0.0,0.0,0.0,5.541135931489208e-05,0.011998062022030354,0.020400160923600197,-0.023985615000128746,0.01,0.0,0.0,0.0,0.01,0.0,0.0,0.0,0.01,-0.2199479639530182,0.09750747680664062,0.003824174404144287,0.01,0.0,0.0,0.0,0.01,0.0,0.0,0.0,0.01
1700026358.506744,38960,1700026358,488845056,sensor_wgs84,0.6488962173461914,0.20541419088840485,0.2331002801656723,0.6945524215698242,1.602515719647884e-06,0.0,0.0,0.0,1.914088836690224e-06,0.0,0.0,0.0,5.541135931489208e-05,0.010691974312067032,0.016219183802604675,-0.038183923810720444,0.01,0.0,0.0,0.0,0.01,0.0,0.0,0.0,0.01,-0.22115489840507507,0.0784749984741211,0.032903194427490234,0.01,0.0,0.0,0.0,0.01,0.0,0.0,0.0,0.01
1700026358.5121222,38961,1700026358,498856960,sensor_wgs84,0.6488663554191589,0.20564043521881104,0.23299729824066162,0.6945479512214661,1.602515719647884e-06,0.0,0.0,0.0,1.914088836690224e-06,0.0,0.0,0.0,5.541135931489208e-05,0.009725256823003292,0.0211371798068285,-0.04593021050095558,0.01,0.0,0.0,0.0,0.01,0.0,0.0,0.0,0.01,-0.22504979372024536,0.0003185272216796875,0.04956728219985962,0.01,0.0,0.0,0.0,0.01,0.0,0.0,0.0,0.01
1700026358.5229442,38962,1700026358,508869888,sensor_wgs84,0.6488347053527832,0.20589031279087067,0.23290987312793732,0.6945326924324036,1.602515719647884e-06,0.0,0.0,0.0,1.914088836690224e-06,0.0,0.0,0.0,5.541135931489208e-05,0.017546799033880234,0.02223382145166397,-0.040684230625629425,0.01,0.0,0.0,0.0,0.01,0.0,0.0,0.0,0.01,-0.23135995864868164,-0.024834632873535156,0.07185477018356323,0.01,0.0,0.0,0.0,0.01,0.0,0.0,0.0,0.01
1700026358.5358102,38963,1700026358,518885376,sensor_wgs84,0.6488242745399475,0.2061499059200287,0.23285852372646332,0.694482684135437,1.602515719647884e-06,0.0,0.0,0.0,1.914088836690224e-06,0.0,0.0,0.0,5.541135931489208e-05,0.022669192403554916,0.036252934485673904,-0.03484003618359566,0.01,0.0,0.0,0.0,0.01,0.0,0.0,0.0,0.01,-0.20187057554721832,-0.05937480926513672,0.1196250319480896,0.01,0.0,0.0,0.0,0.01,0.0,0.0,0.0,0.01
1700026358.5425246,38964,1700026358,528897280,sensor_wgs84,0.6488330960273743,0.206425279378891,0.23285813629627228,0.6943928599357605,1.602515719647884e-06,0.0,0.0,0.0,1.914088836690224e-06,0.0,0.0,0.0,5.541135931489208e-05,0.022865643724799156,0.050366729497909546,-0.028956059366464615,0.01,0.0,0.0,0.0,0.01,0.0,0.0,0.0,0.01,-0.183013916015625,-0.10198116302490234,0.07243835926055908,0.01,0.0,0.0,0.0,0.01,0.0,0.0,0.0,0.01
1700026358.5529368,38965,1700026358,538909696,sensor_wgs84,0.6488164663314819,0.20672030746936798,0.23288984596729279,0.6943099498748779,1.602515719647884e-06,0.0,0.0,0.0,1.914088836690224e-06,0.0,0.0,0.0,5.541135931489208e-05,0.019454268738627434,0.052084214985370636,-0.03852095454931259,0.01,0.0,0.0,0.0,0.01,0.0,0.0,0.0,0.01,-0.153164342045784,-0.05699634552001953,0.08196437358856201,0.01,0.0,0.0,0.0,0.01,0.0,0.0,0.0,0.01
1700026358.575062,38966,1700026358,548924928,sensor_wgs84,0.6487449407577515,0.20704634487628937,0.23291277885437012,0.694271981716156,1.602515719647884e-06,0.0,0.0,0.0,1.914088836690224e-06,0.0,0.0,0.0,5.541135931489208e-05,-0.003321091178804636,0.050613995641469955,-0.047091905027627945,0.01,0.0,0.0,0.0,0.01,0.0,0.0,0.0,0.01,-0.10605205595493317,-0.04898643493652344,0.07183635234832764,0.01,0.0,0.0,0.0,0.01,0.0,0.0,0.0,0.01
1700026358.5750883,38967,1700026358,558936832,sensor_wgs84,0.6486003994941711,0.20739533007144928,0.23290735483169556,0.6943047046661377,1.602515719647884e-06,0.0,0.0,0.0,1.914088836690224e-06,0.0,0.0,0.0,5.541135931489208e-05,-0.01440200861543417,0.05505552515387535,-0.05494343861937523,0.01,0.0,0.0,0.0,0.01,0.0,0.0,0.0,0.01,-0.07837948203086853,-0.08920669555664062,0.038836121559143066,0.01,0.0,0.0,0.0,0.01,0.0,0.0,0.0,0.01
1700026358.5837555,38968,1700026358,568950784,sensor_wgs84,0.6484252214431763,0.20773813128471375,0.23291033506393433,0.6943647265434265,1.602515719647884e-06,0.0,0.0,0.0,1.914088836690224e-06,0.0,0.0,0.0,5.541135931489208e-05,-0.018153659999370575,0.05307001993060112,-0.04970550164580345,0.01,0.0,0.0,0.0,0.01,0.0,0.0,0.0,0.01,-0.06555558741092682,-0.10405826568603516,0.028607606887817383,0.01,0.0,0.0,0.0,0.01,0.0,0.0,0.0,0.01
1700026358.5951943,38969,1700026358,578964992,sensor_wgs84,0.6482630968093872,0.20803900063037872,0.23295243084430695,0.6944119930267334,1.602515719647884e-06,0.0,0.0,0.0,1.914088836690224e-06,0.0,0.0,0.0,5.541135931489208e-05,-0.010385235771536827,0.05546528473496437,-0.03608471900224686,0.01,0.0,0.0,0.0,0.01,0.0,0.0,0.0,0.01,-0.015630707144737244,-0.09621620178222656,0.09194761514663696,0.01,0.0,0.0,0.0,0.01,0.0,0.0,0.0,0.01
