Time,header.seq,header.stamp.secs,header.stamp.nsecs,header.frame_id,orientation.x,orientation.y,orientation.z,orientation.w,orientation_covariance_0,orientation_covariance_1,orientation_covariance_2,orientation_covariance_3,orientation_covariance_4,orientation_covariance_5,orientation_covariance_6,orientation_covariance_7,orientation_covariance_8,angular_velocity.x,angular_velocity.y,angular_velocity.z,angular_velocity_covariance_0,angular_velocity_covariance_1,angular_velocity_covariance_2,angular_velocity_covariance_3,angular_velocity_covariance_4,angular_velocity_covariance_5,angular_velocity_covariance_6,angular_velocity_covariance_7,angular_velocity_covariance_8,linear_acceleration.x,linear_acceleration.y,linear_acceleration.z,linear_acceleration_covariance_0,linear_acceleration_covariance_1,linear_acceleration_covariance_2,linear_acceleration_covariance_3,linear_acceleration_covariance_4,linear_acceleration_covariance_5,linear_acceleration_covariance_6,linear_acceleration_covariance_7,linear_acceleration_covariance_8
1700026578.4053264,60737,1700026578,317001728,gx5_link,0.6617616415023804,0.131678968667984,0.13547013700008392,0.7255205512046814,0.01,0.0,0.0,0.0,0.01,0.0,0.0,0.0,0.01,-0.04185891151428223,0.024928223341703415,0.027808858081698418,0.01,0.0,0.0,0.0,0.01,0.0,0.0,0.0,0.01,-0.04748609252725727,-9.711791449654102,-0.750466338994354,0.01,0.0,0.0,0.0,0.01,0.0,0.0,0.0,0.01
1700026578.4053729,60738,1700026578,327010816,gx5_link,0.6616408228874207,0.13166871666908264,0.1356920301914215,0.7255911231040955,0.01,0.0,0.0,0.0,0.01,0.0,0.0,0.0,0.01,-0.036785226315259933,0.026474181562662125,0.02369977906346321,0.01,0.0,0.0,0.0,0.01,0.0,0.0,0.0,0.01,-0.07195181790909264,-9.721544197383523,-0.7648014460779726,0.01,0.0,0.0,0.0,0.01,0.0,0.0,0.0,0.01
1700026578.4054708,60739,1700026578,337020160,gx5_link,0.6615245342254639,0.13166789710521698,0.13588297367095947,0.72566157579422,0.01,0.0,0.0,0.0,0.01,0.0,0.0,0.0,0.01,-0.0366767980158329,0.02372102066874504,0.015822898596525192,0.01,0.0,0.0,0.0,0.01,0.0,0.0,0.0,0.01,-0.07209344116975552,-9.72130629697442,-0.7375847917199134,0.01,0.0,0.0,0.0,0.01,0.0,0.0,0.0,0.01
1700026578.4059134,60740,1700026578,347031552,gx5_link,0.6613883972167969,0.13172633945941925,0.1360531449317932,0.7257432341575623,0.01,0.0,0.0,0.0,0.01,0.0,0.0,0.0,0.01,-0.03984726220369339,0.027430176734924316,0.006220693234354258,0.01,0.0,0.0,0.0,0.01,0.0,0.0,0.0,0.01,-0.07308806909713894,-9.741405666673183,-0.7038236110892147,0.01,0.0,0.0,0.0,0.01,0.0,0.0,0.0,0.01
1700026578.406341,60741,1700026578,357038848,gx5_link,0.6612227559089661,0.1318170726299286,0.1362132728099823,0.7258475422859192,0.01,0.0,0.0,0.0,0.01,0.0,0.0,0.0,0.01,-0.04559813067317009,0.030531685799360275,-0.001031611580401659,0.01,0.0,0.0,0.0,0.01,0.0,0.0,0.0,0.01,-0.086335435742978,-9.780329563829302,-0.7116554737586528,0.01,0.0,0.0,0.0,0.01,0.0,0.0,0.0,0.01
1700026578.4065378,60742,1700026578,367047936,gx5_link,0.6610137224197388,0.13189829885959625,0.1363675445318222,0.7259942293167114,0.01,0.0,0.0,0.0,0.01,0.0,0.0,0.0,0.01,-0.052954401820898056,0.030245264992117882,-0.004660329781472683,0.01,0.0,0.0,0.0,0.01,0.0,0.0,0.0,0.01,-0.0821024104162585,-9.751379948198794,-0.7620289126247167,0.01,0.0,0.0,0.0,0.01,0.0,0.0,0.0,0.01
1700026578.4067144,60743,1700026578,377060096,gx5_link,0.6607949137687683,0.13197439908981323,0.13647568225860596,0.7261592149734497,0.01,0.0,0.0,0.0,0.01,0.0,0.0,0.0,0.01,-0.05629153922200203,0.025656942278146744,-0.010276062414050102,0.01,0.0,0.0,0.0,0.01,0.0,0.0,0.0,0.01,-0.06902659181188792,-9.683548520988225,-0.8156470325004309,0.01,0.0,0.0,0.0,0.01,0.0,0.0,0.0,0.01
1700026578.406782,60744,1700026578,387067904,gx5_link,0.6605600118637085,0.1320437341928482,0.13653317093849182,0.7263495326042175,0.01,0.0,0.0,0.0,0.01,0.0,0.0,0.0,0.01,-0.05871793255209923,0.01795550435781479,-0.018434878438711166,0.01,0.0,0.0,0.0,0.01,0.0,0.0,0.0,0.01,-0.07007138815708458,-9.614318332895635,-0.8535822108801454,0.01,0.0,0.0,0.0,0.01,0.0,0.0,0.0,0.01
1700026578.4079344,60745,1700026578,397077248,gx5_link,0.6603186726570129,0.13213062286376953,0.13651295006275177,0.7265568971633911,0.01,0.0,0.0,0.0,0.01,0.0,0.0,0.0,0.01,-0.060957785695791245,0.010553868487477303,-0.03262505307793617,0.01,0.0,0.0,0.0,0.01,0.0,0.0,0.0,0.01,-0.0898617284392938,-9.578286065527797,-0.8408796003691852,0.01,0.0,0.0,0.0,0.01,0.0,0.0,0.0,0.01
1700026578.4259155,60746,1700026578,407094784,gx5_link,0.6600759029388428,0.1322852224111557,0.13645857572555542,0.7267595529556274,0.01,0.0,0.0,0.0,0.01,0.0,0.0,0.0,0.01,-0.06023327633738518,0.01356904860585928,-0.04504324123263359,0.01,0.0,0.0,0.0,0.01,0.0,0.0,0.0,0.01,-0.09650032620355486,-9.607397593721746,-0.7797155220933258,0.01,0.0,0.0,0.0,0.01,0.0,0.0,0.0,0.01
1700026578.4315898,60747,1700026578,417103104,gx5_link,0.6598393321037292,0.13250336050987244,0.13642644882202148,0.7269406914710999,0.01,0.0,0.0,0.0,0.01,0.0,0.0,0.0,0.01,-0.056943804025650024,0.02430039457976818,-0.05187825858592987,0.01,0.0,0.0,0.0,0.01,0.0,0.0,0.0,0.01,-0.10655958259887993,-9.644195584765075,-0.7765645837817341,0.01,0.0,0.0,0.0,0.01,0.0,0.0,0.0,0.01
1700026578.4416459,60748,1700026578,427112704,gx5_link,0.6596218347549438,0.13279807567596436,0.13641926646232605,0.7270856499671936,0.01,0.0,0.0,0.0,0.01,0.0,0.0,0.0,0.01,-0.048098135739564896,0.03848392143845558,-0.056027088314294815,0.01,0.0,0.0,0.0,0.01,0.0,0.0,0.0,0.01,-0.09446789792734198,-9.613435704842209,-0.7812474809009581,0.01,0.0,0.0,0.0,0.01,0.0,0.0,0.0,0.01
1700026578.451722,60749,1700026578,437124352,gx5_link,0.6594393253326416,0.1331448256969452,0.13641032576560974,0.7271894216537476,0.01,0.0,0.0,0.0,0.01,0.0,0.0,0.0,0.01,-0.034258220344781876,0.04772312939167023,-0.060800258070230484,0.01,0.0,0.0,0.0,0.01,0.0,0.0,0.0,0.01,-0.07281020657040645,-9.581142624002695,-0.8207040966942906,0.01,0.0,0.0,0.0,0.01,0.0,0.0,0.0,0.01
1700026578.4566238,60750,1700026578,447131648,gx5_link,0.6593030095100403,0.1335574835538864,0.13636471331119537,0.7272459268569946,0.01,0.0,0.0,0.0,0.01,0.0,0.0,0.0,0.01,-0.01772572658956051,0.0540071465075016,-0.06992781907320023,0.01,0.0,0.0,0.0,0.01,0.0,0.0,0.0,0.01,-0.021842076047090812,-9.543071544283627,-0.8578739167246967,0.01,0.0,0.0,0.0,0.01,0.0,0.0,0.0,0.01
1700026578.4674327,60751,1700026578,457140480,gx5_link,0.6592378616333008,0.1340402513742447,0.13630716502666473,0.727226972579956,0.01,0.0,0.0,0.0,0.01,0.0,0.0,0.0,0.01,0.0037960601039230824,0.06203153356909752,-0.07631637156009674,0.01,0.0,0.0,0.0,0.01,0.0,0.0,0.0,0.01,0.01417495265242178,-9.547502804729342,-0.8767477632164955,0.01,0.0,0.0,0.0,0.01,0.0,0.0,0.0,0.01
1700026578.4795506,60752,1700026578,467151360,gx5_link,0.6592419147491455,0.13456931710243225,0.13619676232337952,0.7271462678909302,0.01,0.0,0.0,0.0,0.01,0.0,0.0,0.0,0.01,0.02636520005762577,0.06380517780780792,-0.08622636646032333,0.01,0.0,0.0,0.0,0.01,0.0,0.0,0.0,0.01,0.03851044838386587,-9.559113163024186,-0.9300740605387836,0.01,0.0,0.0,0.0,0.01,0.0,0.0,0.0,0.01
1700026578.486651,60753,1700026578,477158656,gx5_link,0.659313440322876,0.13513492047786713,0.13603641092777252,0.7270064949989319,0.01,0.0,0.0,0.0,0.01,0.0,0.0,0.0,0.01,0.04518764838576317,0.06140049546957016,-0.09374973177909851,0.01,0.0,0.0,0.0,0.01,0.0,0.0,0.0,0.01,0.04923258913471363,-9.678684714344143,-0.9150744981970638,0.01,0.0,0.0,0.0,0.01,0.0,0.0,0.0,0.01
1700026578.4976673,60754,1700026578,487168256,gx5_link,0.6594132781028748,0.1357313096523285,0.13589626550674438,0.7268311381340027,0.01,0.0,0.0,0.0,0.01,0.0,0.0,0.0,0.01,0.05356934294104576,0.06654179841279984,-0.09389563649892807,0.01,0.0,0.0,0.0,0.01,0.0,0.0,0.0,0.01,0.06633287748219445,-9.749899938774108,-0.8838919358827173,0.01,0.0,0.0,0.0,0.01,0.0,0.0,0.0,0.01
1700026578.5160794,60755,1700026578,497185792,gx5_link,0.6595292687416077,0.13636650145053864,0.13576632738113403,0.7266311645507812,0.01,0.0,0.0,0.0,0.01,0.0,0.0,0.0,0.01,0.06085933744907379,0.07463403791189194,-0.09564908593893051,0.01,0.0,0.0,0.0,0.01,0.0,0.0,0.0,0.01,0.09884907215363345,-9.849057063096762,-0.8631118173781782,0.01,0.0,0.0,0.0,0.01,0.0,0.0,0.0,0.01
1700026578.5217125,60756,1700026578,507194112,gx5_link,0.6596391797065735,0.13698796927928925,0.13568146526813507,0.7264304161071777,0.01,0.0,0.0,0.0,0.01,0.0,0.0,0.0,0.01,0.061705369502305984,0.07943081855773926,-0.0889175534248352,0.01,0.0,0.0,0.0,0.01,0.0,0.0,0.0,0.01,0.13614264642787166,-9.918923795527219,-0.9270806508764624,0.01,0.0,0.0,0.0,0.01,0.0,0.0,0.0,0.01
1700026578.5316458,60757,1700026578,517203968,gx5_link,0.6597529649734497,0.13756640255451202,0.13561932742595673,0.7262293100357056,0.01,0.0,0.0,0.0,0.01,0.0,0.0,0.0,0.01,0.06200895085930824,0.07776075601577759,-0.07877746969461441,0.01,0.0,0.0,0.0,0.01,0.0,0.0,0.0,0.01,0.19036705250050873,-9.903564898353814,-0.9686574736941606,0.01,0.0,0.0,0.0,0.01,0.0,0.0,0.0,0.01
1700026578.542553,60758,1700026578,527217664,gx5_link,0.6598712801933289,0.13809794187545776,0.13553957641124725,0.7260357141494751,0.01,0.0,0.0,0.0,0.01,0.0,0.0,0.0,0.01,0.06375322490930557,0.07109123468399048,-0.073185995221138,0.01,0.0,0.0,0.0,0.01,0.0,0.0,0.0,0.01,0.2436780791884288,-9.865556946998835,-1.0185266162998974,0.01,0.0,0.0,0.0,0.01,0.0,0.0,0.0,0.01
1700026578.5481625,60759,1700026578,537224704,gx5_link,0.6600006222724915,0.13859044015407562,0.13542094826698303,0.7258464097976685,0.01,0.0,0.0,0.0,0.01,0.0,0.0,0.0,0.01,0.06548067182302475,0.06003151088953018,-0.07095830142498016,0.01,0.0,0.0,0.0,0.01,0.0,0.0,0.0,0.01,0.2993017667328939,-9.853390708386897,-1.0351371940348297,0.01,0.0,0.0,0.0,0.01,0.0,0.0,0.0,0.01
1700026578.5573778,60760,1700026578,547233536,gx5_link,0.6601366996765137,0.13904739916324615,0.13523124158382416,0.7256706357002258,0.01,0.0,0.0,0.0,0.01,0.0,0.0,0.0,0.01,0.0670304074883461,0.04541006684303284,-0.07483264058828354,0.01,0.0,0.0,0.0,0.01,0.0,0.0,0.0,0.01,0.32896018821988254,-9.8336560803473,-1.0748382861085235,0.01,0.0,0.0,0.0,0.01,0.0,0.0,0.0,0.01
1700026578.569281,60761,1700026578,557244416,gx5_link,0.6602956652641296,0.13943535089492798,0.13497881591320038,0.7254985570907593,0.01,0.0,0.0,0.0,0.01,0.0,0.0,0.0,0.01,0.0698293074965477,0.027491427958011627,-0.07513720542192459,0.01,0.0,0.0,0.0,0.01,0.0,0.0,0.0,0.01,0.2942320622531697,-9.922491717141867,-1.09368845946379,0.01,0.0,0.0,0.0,0.01,0.0,0.0,0.0,0.01
1700026578.5768464,60762,1700026578,567251968,gx5_link,0.6605115532875061,0.1397467404603958,0.13471056520938873,0.725291907787323,0.01,0.0,0.0,0.0,0.01,0.0,0.0,0.0,0.01,0.07669726759195328,0.013943059369921684,-0.06797350198030472,0.01,0.0,0.0,0.0,0.01,0.0,0.0,0.0,0.01,0.26286263559721407,-9.947918419343232,-1.0174640285696834,0.01,0.0,0.0,0.0,0.01,0.0,0.0,0.0,0.01
1700026578.5878787,60763,1700026578,577261312,gx5_link,0.6607465744018555,0.14004185795783997,0.13447381556034088,0.7250648736953735,0.01,0.0,0.0,0.0,0.01,0.0,0.0,0.0,0.01,0.07839138805866241,0.012773032300174236,-0.06275424361228943,0.01,0.0,0.0,0.0,0.01,0.0,0.0,0.0,0.01,0.22962670268332586,-9.953433967894314,-0.9310060806918888,0.01,0.0,0.0,0.0,0.01,0.0,0.0,0.0,0.01
1700026578.6081886,60764,1700026578,587272960,gx5_link,0.6609874367713928,0.14039774239063263,0.13428948819637299,0.7248106002807617,0.01,0.0,0.0,0.0,0.01,0.0,0.0,0.0,0.01,0.08026248961687088,0.025793664157390594,-0.062100667506456375,0.01,0.0,0.0,0.0,0.01,0.0,0.0,0.0,0.01,0.2607294960260391,-9.939880074316262,-0.819335657885298,0.01,0.0,0.0,0.0,0.01,0.0,0.0,0.0,0.01
1700026578.608278,60765,1700026578,597280256,gx5_link,0.6612102389335632,0.14085246622562408,0.13415668904781342,0.7245437502861023,0.01,0.0,0.0,0.0,0.01,0.0,0.0,0.0,0.01,0.08220108598470688,0.04577058553695679,-0.0633804202079773,0.01,0.0,0.0,0.0,0.01,0.0,0.0,0.0,0.01,0.3281632656885311,-9.868480725491047,-0.8237167955789715,0.01,0.0,0.0,0.0,0.01,0.0,0.0,0.0,0.01
1700026578.6171799,60766,1700026578,607288832,gx5_link,0.6614381670951843,0.14131036400794983,0.13405437767505646,0.7242653965950012,0.01,0.0,0.0,0.0,0.01,0.0,0.0,0.0,0.01,0.09173024445772171,0.05251405015587807,-0.05551038309931755,0.01,0.0,0.0,0.0,0.01,0.0,0.0,0.0,0.01,0.4119204667076468,-9.872070858937501,-1.000937987313047,0.01,0.0,0.0,0.0,0.01,0.0,0.0,0.0,0.01
1700026578.6290867,60767,1700026578,617299200,gx5_link,0.6617029309272766,0.1417146921157837,0.13392022252082825,0.7239692807197571,0.01,0.0,0.0,0.0,0.01,0.0,0.0,0.0,0.01,0.10315797477960587,0.04481857642531395,-0.04984905570745468,0.01,0.0,0.0,0.0,0.01,0.0,0.0,0.0,0.01,0.4944038849312812,-9.76688556036651,-1.1582095200173557,0.01,0.0,0.0,0.0,0.01,0.0,0.0,0.0,0.01
1700026578.6366436,60768,1700026578,627306496,gx5_link,0.6620622873306274,0.14204499125480652,0.1337026059627533,0.7236161828041077,0.01,0.0,0.0,0.0,0.01,0.0,0.0,0.0,0.01,0.12366544455289841,0.02587597444653511,-0.048482757061719894,0.01,0.0,0.0,0.0,0.01,0.0,0.0,0.0,0.01,0.49851548496857284,-9.697140993010997,-1.201753916580975,0.01,0.0,0.0,0.0,0.01,0.0,0.0,0.0,0.01
1700026578.6476884,60769,1700026578,637315584,gx5_link,0.662471354007721,0.14231719076633453,0.13333404064178467,0.7232562303543091,0.01,0.0,0.0,0.0,0.01,0.0,0.0,0.0,0.01,0.13608504831790924,-0.0009849220514297485,-0.060038451105356216,0.01,0.0,0.0,0.0,0.01,0.0,0.0,0.0,0.01,0.4787966024873778,-9.661641225084661,-1.1828722521089017,0.01,0.0,0.0,0.0,0.01,0.0,0.0,0.0,0.01
1700026578.6638892,60770,1700026578,647326720,gx5_link,0.6628799438476562,0.14258578419685364,0.13287249207496643,0.7229138016700745,0.01,0.0,0.0,0.0,0.01,0.0,0.0,0.0,0.01,0.13385175168514252,-0.016071980819106102,-0.07585956901311874,0.01,0.0,0.0,0.0,0.01,0.0,0.0,0.0,0.01,0.42463944383151825,-9.71701649082601,-1.1376962357554583,0.01,0.0,0.0,0.0,0.01,0.0,0.0,0.0,0.01
1700026578.6667666,60771,1700026578,657333248,gx5_link,0.6632108092308044,0.14288775622844696,0.13238199055194855,0.7226406335830688,0.01,0.0,0.0,0.0,0.01,0.0,0.0,0.0,0.01,0.1160629615187645,-0.018035130575299263,-0.08981037139892578,0.01,0.0,0.0,0.0,0.01,0.0,0.0,0.0,0.01,0.34329248229190706,-9.826720143604279,-1.0512791313447059,0.01,0.0,0.0,0.0,0.01,0.0,0.0,0.0,0.01
1700026578.6782293,60772,1700026578,667342848,gx5_link,0.6634880304336548,0.14318209886550903,0.13194486498832703,0.722407877445221,0.01,0.0,0.0,0.0,0.01,0.0,0.0,0.0,0.01,0.09904734790325165,-0.013303237967193127,-0.0883578285574913,0.01,0.0,0.0,0.0,0.01,0.0,0.0,0.0,0.01,0.27050144164627415,-9.957869319993257,-0.9560507247731089,0.01,0.0,0.0,0.0,0.01,0.0,0.0,0.0,0.01
1700026578.6899838,60773,1700026578,677354240,gx5_link,0.6637274622917175,0.1434304565191269,0.13167168200016022,0.7221884727478027,0.01,0.0,0.0,0.0,0.01,0.0,0.0,0.0,0.01,0.08867014944553375,-0.0009806868620216846,-0.06534817069768906,0.01,0.0,0.0,0.0,0.01,0.0,0.0,0.0,0.01,0.225995725769829,-10.031782112944125,-0.9780305013909936,0.01,0.0,0.0,0.0,0.01,0.0,0.0,0.0,0.01
1700026578.6972108,60774,1700026578,687361792,gx5_link,0.6639993190765381,0.14359503984451294,0.13154470920562744,0.7219290137290955,0.01,0.0,0.0,0.0,0.01,0.0,0.0,0.0,0.01,0.08645473420619965,0.006822202354669571,-0.0325787290930748,0.01,0.0,0.0,0.0,0.01,0.0,0.0,0.0,0.01,0.21131858204919843,-10.079987633186578,-0.9446555435989051,0.01,0.0,0.0,0.0,0.01,0.0,0.0,0.0,0.01
1700026578.7074735,60775,1700026578,697370624,gx5_link,0.6643018126487732,0.14369602501392365,0.13158126175403595,0.7216238379478455,0.01,0.0,0.0,0.0,0.01,0.0,0.0,0.0,0.01,0.08761967718601227,0.020250286906957626,0.0003611242864280939,0.01,0.0,0.0,0.0,0.01,0.0,0.0,0.0,0.01,0.251776136779692,-10.042641360610723,-0.8303955426905304,0.01,0.0,0.0,0.0,0.01,0.0,0.0,0.0,0.01
1700026578.7255387,60776,1700026578,707381248,gx5_link,0.6645928621292114,0.14378692209720612,0.1317174881696701,0.7213128209114075,0.01,0.0,0.0,0.0,0.01,0.0,0.0,0.0,0.01,0.08478976786136627,0.03161250427365303,0.01866808719933033,0.01,0.0,0.0,0.0,0.01,0.0,0.0,0.0,0.01,0.2909732796529308,-9.951022230577468,-0.841317261134088,0.01,0.0,0.0,0.0,0.01,0.0,0.0,0.0,0.01
1700026578.7273717,60777,1700026578,717388544,gx5_link,0.6648512482643127,0.1438775211572647,0.13189931213855743,0.7210233807563782,0.01,0.0,0.0,0.0,0.01,0.0,0.0,0.0,0.01,0.07589887827634811,0.03879468888044357,0.029245475307106972,0.01,0.0,0.0,0.0,0.01,0.0,0.0,0.0,0.01,0.3219756630947813,-9.980717111617325,-0.8394396306939422,0.01,0.0,0.0,0.0,0.01,0.0,0.0,0.0,0.01
1700026578.7379465,60778,1700026578,727397888,gx5_link,0.6650876998901367,0.14396452903747559,0.13213814795017242,0.7207441329956055,0.01,0.0,0.0,0.0,0.01,0.0,0.0,0.0,0.01,0.0684751495718956,0.046356864273548126,0.0363842248916626,0.01,0.0,0.0,0.0,0.01,0.0,0.0,0.0,0.01,0.36607155606131997,-9.89197032214999,-0.7855304189171641,0.01,0.0,0.0,0.0,0.01,0.0,0.0,0.0,0.01
1700026578.7499475,60779,1700026578,737409024,gx5_link,0.6652912497520447,0.14409586787223816,0.13234694302082062,0.7204916477203369,0.01,0.0,0.0,0.0,0.01,0.0,0.0,0.0,0.01,0.06403068453073502,0.04979176074266434,0.028367113322019577,0.01,0.0,0.0,0.0,0.01,0.0,0.0,0.0,0.01,0.3868577389804646,-9.797960497587919,-0.7880639559827745,0.01,0.0,0.0,0.0,0.01,0.0,0.0,0.0,0.01
1700026578.7566833,60780,1700026578,747415552,gx5_link,0.6654971241950989,0.14427785575389862,0.13250400125980377,0.7202362418174744,0.01,0.0,0.0,0.0,0.01,0.0,0.0,0.0,0.01,0.06602605432271957,0.0505959689617157,0.01735076494514942,0.01,0.0,0.0,0.0,0.01,0.0,0.0,0.0,0.01,0.4388278724534437,-9.815475111490487,-0.7474442877594382,0.01,0.0,0.0,0.0,0.01,0.0,0.0,0.0,0.01
1700026578.7688904,60781,1700026578,757423872,gx5_link,0.6657455563545227,0.14452750980854034,0.1326434314250946,0.7199308276176453,0.01,0.0,0.0,0.0,0.01,0.0,0.0,0.0,0.01,0.0745408833026886,0.05672339349985123,0.009967342019081116,0.01,0.0,0.0,0.0,0.01,0.0,0.0,0.0,0.01,0.4959573249183595,-9.817026432585715,-0.6539683508783578,0.01,0.0,0.0,0.0,0.01,0.0,0.0,0.0,0.01
1700026578.7889864,60782,1700026578,770437632,gx5_link,0.6660128235816956,0.14482656121253967,0.13274513185024261,0.7196046710014343,0.01,0.0,0.0,0.0,0.01,0.0,0.0,0.0,0.01,0.08370446413755417,0.05930188670754433,0.0013486696407198906,0.01,0.0,0.0,0.0,0.01,0.0,0.0,0.0,0.01,0.5305764740852639,-9.87116134287715,-0.6870936447583138,0.01,0.0,0.0,0.0,0.01,0.0,0.0,0.0,0.01
1700026578.7922957,60783,1700026578,780448000,gx5_link,0.6662732362747192,0.1450931280851364,0.1328318864107132,0.7192938923835754,0.01,0.0,0.0,0.0,0.01,0.0,0.0,0.0,0.01,0.08402283489704132,0.05476439371705055,0.0010676936944946647,0.01,0.0,0.0,0.0,0.01,0.0,0.0,0.0,0.01,0.5301023537674918,-9.990352370446919,-0.7189023030817508,0.01,0.0,0.0,0.0,0.01,0.0,0.0,0.0,0.01
1700026578.7976334,60784,1700026578,790454272,gx5_link,0.6665140986442566,0.14527255296707153,0.13292717933654785,0.7190169095993042,0.01,0.0,0.0,0.0,0.01,0.0,0.0,0.0,0.01,0.07701846957206726,0.044430434703826904,0.01044408604502678,0.01,0.0,0.0,0.0,0.01,0.0,0.0,0.0,0.01,0.5117201997827738,-10.12882794420123,-0.808850138901919,0.01,0.0,0.0,0.0,0.01,0.0,0.0,0.0,0.01
1700026578.8095605,60785,1700026578,800462080,gx5_link,0.6667420268058777,0.14532922208309174,0.13306638598442078,0.7187683582305908,0.01,0.0,0.0,0.0,0.01,0.0,0.0,0.0,0.01,0.0668594166636467,0.032946448773145676,0.029880410060286522,0.01,0.0,0.0,0.0,0.01,0.0,0.0,0.0,0.01,0.499475196846202,-10.278124187177418,-0.8273485762100666,0.01,0.0,0.0,0.0,0.01,0.0,0.0,0.0,0.01
1700026578.8213913,60786,1700026578,810471936,gx5_link,0.6669073104858398,0.14519988000392914,0.13327930867671967,0.7186015844345093,0.01,0.0,0.0,0.0,0.01,0.0,0.0,0.0,0.01,0.04583156108856201,0.017309250310063362,0.05954711139202118,0.01,0.0,0.0,0.0,0.01,0.0,0.0,0.0,0.01,0.49123972181193526,-10.358908619463444,-0.8928178043339401,0.01,0.0,0.0,0.0,0.01,0.0,0.0,0.0,0.01
1700026578.8280187,60787,1700026578,820478208,gx5_link,0.6670244932174683,0.14487048983573914,0.13359369337558746,0.7185009717941284,0.01,0.0,0.0,0.0,0.01,0.0,0.0,0.0,0.01,0.02255645953118801,0.0007599846576340497,0.09735924750566483,0.01,0.0,0.0,0.0,0.01,0.0,0.0,0.0,0.01,0.49963648835513735,-10.356831228667497,-0.8991220921099186,0.01,0.0,0.0,0.0,0.01,0.0,0.0,0.0,0.01
1700026578.8476558,60788,1700026578,830486528,gx5_link,0.6671189069747925,0.14438842236995697,0.13400056958198547,0.7184346318244934,0.01,0.0,0.0,0.0,0.01,0.0,0.0,0.0,0.01,0.005370721220970154,-0.010828204452991486,0.12838362157344818,0.01,0.0,0.0,0.0,0.01,0.0,0.0,0.0,0.01,0.468859438101761,-10.254945556163788,-0.8693691242072731,0.01,0.0,0.0,0.0,0.01,0.0,0.0,0.0,0.01
1700026578.8518581,60789,1700026578,840496384,gx5_link,0.6671789288520813,0.14379294216632843,0.13444919884204865,0.7184144258499146,0.01,0.0,0.0,0.0,0.01,0.0,0.0,0.0,0.01,-0.012444965541362762,-0.021013621240854263,0.14659930765628815,0.01,0.0,0.0,0.0,0.01,0.0,0.0,0.0,0.01,0.4285449268374592,-10.14191889644265,-0.7715707210171967,0.01,0.0,0.0,0.0,0.01,0.0,0.0,0.0,0.01
1700026578.8572102,60790,1700026578,850501888,gx5_link,0.6672088503837585,0.14319263398647308,0.13495378196239471,0.7184120416641235,0.01,0.0,0.0,0.0,0.01,0.0,0.0,0.0,0.01,-0.028320297598838806,-0.018798481673002243,0.1557331681251526,0.01,0.0,0.0,0.0,0.01,0.0,0.0,0.0,0.01,0.4138900497475639,-10.057221674627066,-0.5484473540795967,0.01,0.0,0.0,0.0,0.01,0.0,0.0,0.0,0.01
1700026578.875628,60791,1700026578,860515584,gx5_link,0.6671685576438904,0.1426834762096405,0.13550527393817902,0.7184469103813171,0.01,0.0,0.0,0.0,0.01,0.0,0.0,0.0,0.01,-0.047638799995183945,-0.00262625003233552,0.14986968040466309,0.01,0.0,0.0,0.0,0.01,0.0,0.0,0.0,0.01,0.41108894778694954,-9.952723189276456,-0.42045192901380357,0.01,0.0,0.0,0.0,0.01,0.0,0.0,0.0,0.01
1700026578.882286,60792,1700026578,870525952,gx5_link,0.6670313477516174,0.14229469001293182,0.1360483318567276,0.7185487747192383,0.01,0.0,0.0,0.0,0.01,0.0,0.0,0.0,0.01,-0.06898798793554306,0.013795165345072746,0.13136327266693115,0.01,0.0,0.0,0.0,0.01,0.0,0.0,0.0,0.01,0.44130577034167945,-9.84566449804902,-0.37004827767256643,0.01,0.0,0.0,0.0,0.01,0.0,0.0,0.0,0.01
1700026578.8875594,60793,1700026578,880531712,gx5_link,0.6667757034301758,0.14204800128936768,0.13651520013809204,0.7187463045120239,0.01,0.0,0.0,0.0,0.01,0.0,0.0,0.0,0.01,-0.0885734111070633,0.02450544945895672,0.10137490928173065,0.01,0.0,0.0,0.0,0.01,0.0,0.0,0.0,0.01,0.5156853770866989,-9.736869776809215,-0.38011600963529196,0.01,0.0,0.0,0.0,0.01,0.0,0.0,0.0,0.01
1700026578.9069686,60794,1700026578,890539776,gx5_link,0.6664501428604126,0.1418762058019638,0.13685156404972076,0.7190180420875549,0.01,0.0,0.0,0.0,0.01,0.0,0.0,0.0,0.01,-0.10021492838859558,0.02016388811171055,0.0735926553606987,0.01,0.0,0.0,0.0,0.01,0.0,0.0,0.0,0.01,0.591056332956627,-9.6266926613003,-0.5180230993192643,0.01,0.0,0.0,0.0,0.01,0.0,0.0,0.0,0.01
1700026578.91235,60795,1700026578,900549376,gx5_link,0.6660817861557007,0.14168322086334229,0.13698606193065643,0.7193717360496521,0.01,0.0,0.0,0.0,0.01,0.0,0.0,0.0,0.01,-0.10550914704799652,-0.005812607705593109,0.0443730466067791,0.01,0.0,0.0,0.0,0.01,0.0,0.0,0.0,0.01,0.6444925934594125,-9.46647111968398,-0.7103702562537044,0.01,0.0,0.0,0.0,0.01,0.0,0.0,0.0,0.01
1700026578.9179711,60796,1700026578,910555648,gx5_link,0.6657164692878723,0.14139793813228607,0.13684913516044617,0.7197920083999634,0.01,0.0,0.0,0.0,0.01,0.0,0.0,0.0,0.01,-0.10464264452457428,-0.052454229444265366,0.015462459996342659,0.01,0.0,0.0,0.0,0.01,0.0,0.0,0.0,0.01,0.6431759579028934,-9.368749581122398,-0.9201554547231644,0.01,0.0,0.0,0.0,0.01,0.0,0.0,0.0,0.01
1700026578.929845,60797,1700026578,920563712,gx5_link,0.6653947830200195,0.1409604251384735,0.1364942342042923,0.7202425003051758,0.01,0.0,0.0,0.0,0.01,0.0,0.0,0.0,0.01,-0.10238069295883179,-0.09948763251304626,0.0030755666084587574,0.01,0.0,0.0,0.0,0.01,0.0,0.0,0.0,0.01,0.6033510933190583,-9.413511098390817,-0.9084243195928633,0.01,0.0,0.0,0.0,0.01,0.0,0.0,0.0,0.01
1700026578.941632,60798,1700026578,930573312,gx5_link,0.6650997400283813,0.14038939774036407,0.13608217239379883,0.7207044363021851,0.01,0.0,0.0,0.0,0.01,0.0,0.0,0.0,0.01,-0.10210290551185608,-0.13056430220603943,0.007793846540153027,0.01,0.0,0.0,0.0,0.01,0.0,0.0,0.0,0.01,0.5369335514944047,-9.452144488167763,-0.8830102576773613,0.01,0.0,0.0,0.0,0.01,0.0,0.0,0.0,0.01
1700026578.9471896,60799,1700026578,940578304,gx5_link,0.6648411750793457,0.13971689343452454,0.13567125797271729,0.7211509346961975,0.01,0.0,0.0,0.0,0.01,0.0,0.0,0.0,0.01,-0.09963333606719971,-0.15000836551189423,0.01814301870763302,0.01,0.0,0.0,0.0,0.01,0.0,0.0,0.0,0.01,0.4776948517905548,-9.405071771347522,-0.8562736419212073,0.01,0.0,0.0,0.0,0.01,0.0,0.0,0.0,0.01
1700026578.9654524,60800,1700026578,950591744,gx5_link,0.6646021008491516,0.13896945118904114,0.13533525168895721,0.7215787768363953,0.01,0.0,0.0,0.0,0.01,0.0,0.0,0.0,0.01,-0.09885906428098679,-0.15483933687210083,0.038970980793237686,0.01,0.0,0.0,0.0,0.01,0.0,0.0,0.0,0.01,0.4115487838510424,-9.45073169876039,-0.8080878492925315,0.01,0.0,0.0,0.0,0.01,0.0,0.0,0.0,0.01
1700026578.9715855,60801,1700026578,960601856,gx5_link,0.6644071340560913,0.13812056183815002,0.13512270152568817,0.7219610214233398,0.01,0.0,0.0,0.0,0.01,0.0,0.0,0.0,0.01,-0.09189897030591965,-0.15440773963928223,0.06776411831378937,0.01,0.0,0.0,0.0,0.01,0.0,0.0,0.0,0.01,0.3876854585088789,-9.414617013806104,-0.8592964238084853,0.01,0.0,0.0,0.0,0.01,0.0,0.0,0.0,0.01
1700026578.977568,60802,1700026578,970607616,gx5_link,0.6642488837242126,0.13722039759159088,0.13497941195964813,0.7223051190376282,0.01,0.0,0.0,0.0,0.01,0.0,0.0,0.0,0.01,-0.08496185392141342,-0.15387268364429474,0.08890464901924133,0.01,0.0,0.0,0.0,0.01,0.0,0.0,0.0,0.01,0.40765674484856423,-9.340686100676654,-0.891618657677248,0.01,0.0,0.0,0.0,0.01,0.0,0.0,0.0,0.01
1700026578.989524,60803,1700026578,980615168,gx5_link,0.6640968918800354,0.136287122964859,0.1348598748445511,0.7226437926292419,0.01,0.0,0.0,0.0,0.01,0.0,0.0,0.0,0.01,-0.08542943745851517,-0.153251051902771,0.09926307946443558,0.01,0.0,0.0,0.0,0.01,0.0,0.0,0.0,0.01,0.42024190299231556,-9.262228065511584,-0.9062319971803575,0.01,0.0,0.0,0.0,0.01,0.0,0.0,0.0,0.01
1700026579.0013778,60804,1700026578,990624512,gx5_link,0.6639133095741272,0.13532303273677826,0.13470986485481262,0.7230214476585388,0.01,0.0,0.0,0.0,0.01,0.0,0.0,0.0,0.01,-0.09308242797851562,-0.16187475621700287,0.10002392530441284,0.01,0.0,0.0,0.0,0.01,0.0,0.0,0.0,0.01,0.4014336690826341,-9.268470174771547,-0.8791000984963029,0.01,0.0,0.0,0.0,0.01,0.0,0.0,0.0,0.01
1700026579.008003,60805,1700026579,630784,gx5_link,0.6636916399002075,0.13428720831871033,0.13455285131931305,0.723447322845459,0.01,0.0,0.0,0.0,0.01,0.0,0.0,0.0,0.01,-0.10352171212434769,-0.174787238240242,0.10448181629180908,0.01,0.0,0.0,0.0,0.01,0.0,0.0,0.0,0.01,0.38806974511872977,-9.355407868990302,-0.9428918949272483,0.01,0.0,0.0,0.0,0.01,0.0,0.0,0.0,0.01
1700026579.0264199,60806,1700026579,10638592,gx5_link,0.6634711027145386,0.13318122923374176,0.13439619541168213,0.7238829731941223,0.01,0.0,0.0,0.0,0.01,0.0,0.0,0.0,0.01,-0.11035096645355225,-0.1863952875137329,0.11335430294275284,0.01,0.0,0.0,0.0,0.01,0.0,0.0,0.0,0.01,0.37538437800351526,-9.340894774991273,-0.9044707596614956,0.01,0.0,0.0,0.0,0.01,0.0,0.0,0.0,0.01
1700026579.0310483,60807,1700026579,20648448,gx5_link,0.6632378101348877,0.1320456713438034,0.13422948122024536,0.7243356108665466,0.01,0.0,0.0,0.0,0.01,0.0,0.0,0.0,0.01,-0.1179288774728775,-0.1943424940109253,0.1147371307015419,0.01,0.0,0.0,0.0,0.01,0.0,0.0,0.0,0.01,0.36595417675934727,-9.321908334970473,-0.8030986627031117,0.01,0.0,0.0,0.0,0.01,0.0,0.0,0.0,0.01
1700026579.0364358,60808,1700026579,30653440,gx5_link,0.6630004644393921,0.13091441988945007,0.13399934768676758,0.724800705909729,0.01,0.0,0.0,0.0,0.01,0.0,0.0,0.0,0.01,-0.12080913037061691,-0.20371951162815094,0.10321962088346481,0.01,0.0,0.0,0.0,0.01,0.0,0.0,0.0,0.01,0.2987514393737539,-9.242657103601097,-0.8220788921788335,0.01,0.0,0.0,0.0,0.01,0.0,0.0,0.0,0.01
1700026579.050229,60809,1700026579,40661504,gx5_link,0.6627669930458069,0.1297709047794342,0.13373927772045135,0.7252678275108337,0.01,0.0,0.0,0.0,0.01,0.0,0.0,0.0,0.01,-0.12540391087532043,-0.20964083075523376,0.09923244267702103,0.01,0.0,0.0,0.0,0.01,0.0,0.0,0.0,0.01,0.19768022505808622,-9.40638051585853,-0.6292698898863047,0.01,0.0,0.0,0.0,0.01,0.0,0.0,0.0,0.01
1700026579.062245,60810,1700026579,50671360,gx5_link,0.6625431776046753,0.12863869965076447,0.1335371881723404,0.7257109880447388,0.01,0.0,0.0,0.0,0.01,0.0,0.0,0.0,0.01,-0.12598609924316406,-0.20488159358501434,0.10263144224882126,0.01,0.0,0.0,0.0,0.01,0.0,0.0,0.0,0.01,0.11878580776974558,-9.499690667718648,-0.5681089534156024,0.01,0.0,0.0,0.0,0.01,0.0,0.0,0.0,0.01
1700026579.0675755,60811,1700026579,60677120,gx5_link,0.6622796654701233,0.12756061553955078,0.13339708745479584,0.7261674404144287,0.01,0.0,0.0,0.0,0.01,0.0,0.0,0.0,0.01,-0.13430921733379364,-0.19030340015888214,0.10172875970602036,0.01,0.0,0.0,0.0,0.01,0.0,0.0,0.0,0.01,0.06439177618466783,-9.495588493096827,-0.5544870361026376,0.01,0.0,0.0,0.0,0.01,0.0,0.0,0.0,0.01
1700026579.08535,60812,1700026579,70684416,gx5_link,0.6619592905044556,0.1265597641468048,0.13325203955173492,0.7266611456871033,0.01,0.0,0.0,0.0,0.01,0.0,0.0,0.0,0.01,-0.14459006488323212,-0.17847828567028046,0.08851193636655807,0.01,0.0,0.0,0.0,0.01,0.0,0.0,0.0,0.01,0.039479919037106445,-9.414006188431381,-0.5727737303562462,0.01,0.0,0.0,0.0,0.01,0.0,0.0,0.0,0.01
1700026579.0907214,60813,1700026579,80693760,gx5_link,0.6615685224533081,0.12568221986293793,0.13306741416454315,0.7272029519081116,0.01,0.0,0.0,0.0,0.01,0.0,0.0,0.0,0.01,-0.15483027696609497,-0.16542665660381317,0.06514216959476471,0.01,0.0,0.0,0.0,0.01,0.0,0.0,0.0,0.01,0.03584201005932409,-9.308783480459452,-0.5910571732068434,0.01,0.0,0.0,0.0,0.01,0.0,0.0,0.0,0.01
1700026579.0972843,60814,1700026579,90699520,gx5_link,0.6610977649688721,0.12488336861133575,0.1328253298997879,0.7278127074241638,0.01,0.0,0.0,0.0,0.01,0.0,0.0,0.0,0.01,-0.16352951526641846,-0.16005226969718933,0.044277675449848175,0.01,0.0,0.0,0.0,0.01,0.0,0.0,0.0,0.01,0.0328410701110959,-9.235537042462825,-0.778673465694487,0.01,0.0,0.0,0.0,0.01,0.0,0.0,0.0,0.01
1700026579.109798,60815,1700026579,100707584,gx5_link,0.6605993509292603,0.1241503655910492,0.13246873021125793,0.7284554839134216,0.01,0.0,0.0,0.0,0.01,0.0,0.0,0.0,0.01,-0.16238167881965637,-0.1623789221048355,0.016948245465755463,0.01,0.0,0.0,0.0,0.01,0.0,0.0,0.0,0.01,0.01210800105209928,-9.14364026453197,-0.990781042696908,0.01,0.0,0.0,0.0,0.01,0.0,0.0,0.0,0.01
1700026579.1216602,60816,1700026579,110717440,gx5_link,0.6601077914237976,0.12346117943525314,0.13201546669006348,0.7291001081466675,0.01,0.0,0.0,0.0,0.01,0.0,0.0,0.0,0.01,-0.15830451250076294,-0.16635195910930634,-0.004062867723405361,0.01,0.0,0.0,0.0,0.01,0.0,0.0,0.0,0.01,-0.02686449361925479,-9.192413940051198,-1.0462306157834826,0.01,0.0,0.0,0.0,0.01,0.0,0.0,0.0,0.01
1700026579.1271596,60817,1700026579,120722432,gx5_link,0.6596503257751465,0.12281467020511627,0.13155518472194672,0.729706346988678,0.01,0.0,0.0,0.0,0.01,0.0,0.0,0.0,0.01,-0.15024186670780182,-0.16222640872001648,-0.011803196743130684,0.01,0.0,0.0,0.0,0.01,0.0,0.0,0.0,0.01,-0.08898674483620561,-9.296805457895994,-1.0267181791272013,0.01,0.0,0.0,0.0,0.01,0.0,0.0,0.0,0.01
1700026579.1457543,60818,1700026579,130730752,gx5_link,0.6592277884483337,0.12223628163337708,0.13116355240345,0.730255663394928,0.01,0.0,0.0,0.0,0.01,0.0,0.0,0.0,0.01,-0.1394449770450592,-0.14569367468357086,-0.012860280461609364,0.01,0.0,0.0,0.0,0.01,0.0,0.0,0.0,0.01,-0.13429449781053698,-9.292882146972417,-1.0056196423232555,0.01,0.0,0.0,0.0,0.01,0.0,0.0,0.0,0.01
1700026579.1514304,60819,1700026579,140740864,gx5_link,0.658815324306488,0.1218145415186882,0.13082468509674072,0.7307588458061218,0.01,0.0,0.0,0.0,0.01,0.0,0.0,0.0,0.01,-0.13094335794448853,-0.11851169168949127,-0.024977805092930794,0.01,0.0,0.0,0.0,0.01,0.0,0.0,0.0,0.01,-0.1728364007785916,-9.266547682276368,-0.9291047771152109,0.01,0.0,0.0,0.0,0.01,0.0,0.0,0.0,0.01
1700026579.156766,60820,1700026579,150746112,gx5_link,0.6584281325340271,0.12156376987695694,0.1305147260427475,0.7312048673629761,0.01,0.0,0.0,0.0,0.01,0.0,0.0,0.0,0.01,-0.1190730631351471,-0.09075510501861572,-0.04145621135830879,0.01,0.0,0.0,0.0,0.01,0.0,0.0,0.0,0.01,-0.21828374488670377,-9.313121217402815,-0.9062518709246069,0.01,0.0,0.0,0.0,0.01,0.0,0.0,0.0,0.01
1700026579.1693158,60821,1700026579,160753152,gx5_link,0.6580485105514526,0.1215243861079216,0.13020838797092438,0.7316076755523682,0.01,0.0,0.0,0.0,0.01,0.0,0.0,0.0,0.01,-0.10653332620859146,-0.05932195484638214,-0.06707733124494553,0.01,0.0,0.0,0.0,0.01,0.0,0.0,0.0,0.01,-0.20890140137225388,-9.316042657807468,-0.9095290659643709,0.01,0.0,0.0,0.0,0.01,0.0,0.0,0.0,0.01
1700026579.1811073,60822,1700026579,170761984,gx5_link,0.6576496958732605,0.12169940024614334,0.12984000146389008,0.7320026159286499,0.01,0.0,0.0,0.0,0.01,0.0,0.0,0.0,0.01,-0.09988927841186523,-0.03477716073393822,-0.10211747884750366,0.01,0.0,0.0,0.0,0.01,0.0,0.0,0.0,0.01,-0.18772934267437083,-9.370508407488465,-0.9154008806072175,0.01,0.0,0.0,0.0,0.01,0.0,0.0,0.0,0.01
1700026579.1878245,60823,1700026579,180767744,gx5_link,0.6572097539901733,0.12207658588886261,0.12940680980682373,0.7324115037918091,0.01,0.0,0.0,0.0,0.01,0.0,0.0,0.0,0.01,-0.09885293245315552,-0.012177275493741035,-0.13702784478664398,0.01,0.0,0.0,0.0,0.01,0.0,0.0,0.0,0.01,-0.11846992848729714,-9.405301488450169,-0.9920211789511144,0.01,0.0,0.0,0.0,0.01,0.0,0.0,0.0,0.01
1700026579.2067266,60824,1700026579,190775296,gx5_link,0.6567209959030151,0.12260899692773819,0.12888063490390778,0.7328535914421082,0.01,0.0,0.0,0.0,0.01,0.0,0.0,0.0,0.01,-0.09988519549369812,0.0008549919002689421,-0.1701575666666031,0.01,0.0,0.0,0.0,0.01,0.0,0.0,0.0,0.01,-0.03545213624219177,-9.454521154171228,-1.0727237781725822,0.01,0.0,0.0,0.0,0.01,0.0,0.0,0.0,0.01
1700026579.21118,60825,1700026579,200784640,gx5_link,0.6561979055404663,0.12323344498872757,0.12824837863445282,0.7333281636238098,0.01,0.0,0.0,0.0,0.01,0.0,0.0,0.0,0.01,-0.10310126096010208,0.002291814424097538,-0.1973864585161209,0.01,0.0,0.0,0.0,0.01,0.0,0.0,0.0,0.01,0.04111245670896023,-9.509191486513615,-1.2029370619509367,0.01,0.0,0.0,0.0,0.01,0.0,0.0,0.0,0.01
1700026579.2176728,60826,1700026579,210790912,gx5_link,0.6556428670883179,0.12383591383695602,0.12752480804920197,0.7338492274284363,0.01,0.0,0.0,0.0,0.01,0.0,0.0,0.0,0.01,-0.10635427385568619,-0.008003514260053635,-0.2104186862707138,0.01,0.0,0.0,0.0,0.01,0.0,0.0,0.0,0.01,0.10536039940956979,-9.598182021608949,-1.3049312363304197,0.01,0.0,0.0,0.0,0.01,0.0,0.0,0.0,0.01
1700026579.2300205,60827,1700026579,220798976,gx5_link,0.6550977230072021,0.1243799701333046,0.12673963606357574,0.7343798875808716,0.01,0.0,0.0,0.0,0.01,0.0,0.0,0.0,0.01,-0.10606534034013748,-0.02426455356180668,-0.21336482465267181,0.01,0.0,0.0,0.0,0.01,0.0,0.0,0.0,0.01,0.1390858511397615,-9.633076809379459,-1.35454443141371,0.01,0.0,0.0,0.0,0.01,0.0,0.0,0.0,0.01
1700026579.24123,60828,1700026579,230808576,gx5_link,0.6545528769493103,0.12485403567552567,0.12590694427490234,0.7349281907081604,0.01,0.0,0.0,0.0,0.01,0.0,0.0,0.0,0.01,-0.10849244892597198,-0.04129820317029953,-0.2130153626203537,0.01,0.0,0.0,0.0,0.01,0.0,0.0,0.0,0.01,0.1350924797878135,-9.719436411449312,-1.374972740805894,0.01,0.0,0.0,0.0,0.01,0.0,0.0,0.0,0.01
1700026579.246701,60829,1700026579,240813824,gx5_link,0.6540271639823914,0.12532033026218414,0.12511542439460754,0.735451877117157,0.01,0.0,0.0,0.0,0.01,0.0,0.0,0.0,0.01,-0.11241764575242996,-0.040844522416591644,-0.20644710958003998,0.01,0.0,0.0,0.0,0.01,0.0,0.0,0.0,0.01,0.1475318636521697,-9.790935713517666,-1.198815305845812,0.01,0.0,0.0,0.0,0.01,0.0,0.0,0.0,0.01
1700026579.2600832,60830,1700026579,250821120,gx5_link,0.653514564037323,0.12578076124191284,0.12446718662977219,0.7359388470649719,0.01,0.0,0.0,0.0,0.01,0.0,0.0,0.0,0.01,-0.11163902282714844,-0.02679748460650444,-0.18507061898708344,0.01,0.0,0.0,0.0,0.01,0.0,0.0,0.0,0.01,0.148618645108724,-9.887782807332277,-1.1163505923226476,0.01,0.0,0.0,0.0,0.01,0.0,0.0,0.0,0.01
1700026579.2716541,60831,1700026579,260830976,gx5_link,0.6530463695526123,0.12616592645645142,0.12400877475738525,0.7363656759262085,0.01,0.0,0.0,0.0,0.01,0.0,0.0,0.0,0.01,-0.10256139189004898,-0.012937483377754688,-0.14628712832927704,0.01,0.0,0.0,0.0,0.01,0.0,0.0,0.0,0.01,0.18089876600196583,-9.92529976029992,-1.1599987415216861,0.01,0.0,0.0,0.0,0.01,0.0,0.0,0.0,0.01
1700026579.2840884,60832,1700026579,270842880,gx5_link,0.6526663899421692,0.1264500916004181,0.12369667738676071,0.7367062568664551,0.01,0.0,0.0,0.0,0.01,0.0,0.0,0.0,0.01,-0.08084127306938171,-0.008014894090592861,-0.10738396644592285,0.01,0.0,0.0,0.0,0.01,0.0,0.0,0.0,0.01,0.2190954631283879,-9.88662077781558,-1.3059858599498868,0.01,0.0,0.0,0.0,0.01,0.0,0.0,0.0,0.01
1700026579.289581,60833,1700026579,282848256,gx5_link,0.652449905872345,0.1265885978937149,0.12347331643104553,0.7369117736816406,0.01,0.0,0.0,0.0,0.01,0.0,0.0,0.0,0.01,-0.05038704350590706,-0.014603640884160995,-0.06904256343841553,0.01,0.0,0.0,0.0,0.01,0.0,0.0,0.0,0.01,0.2309807111081667,-9.972436774528026,-1.2981535588890314,0.01,0.0,0.0,0.0,0.01,0.0,0.0,0.0,0.01
1700026579.3006933,60834,1700026579,292855040,gx5_link,0.6523109674453735,0.12667366862297058,0.12333881109952927,0.7370426058769226,0.01,0.0,0.0,0.0,0.01,0.0,0.0,0.0,0.01,-0.036614738404750824,-0.013796000741422176,-0.04508192837238312,0.01,0.0,0.0,0.0,0.01,0.0,0.0,0.0,0.01,0.23379319297932086,-10.033526326262951,-1.1637141087830065,0.01,0.0,0.0,0.0,0.01,0.0,0.0,0.0,0.01
1700026579.313112,60835,1700026579,302864128,gx5_link,0.6521261930465698,0.12680374085903168,0.1231977567076683,0.737207293510437,0.01,0.0,0.0,0.0,0.01,0.0,0.0,0.0,0.01,-0.046485330909490585,-0.008989053778350353,-0.05027221515774727,0.01,0.0,0.0,0.0,0.01,0.0,0.0,0.0,0.01,0.26255521361585704,-9.984002124637366,-1.0889850310131908,0.01,0.0,0.0,0.0,0.01,0.0,0.0,0.0,0.01
1700026579.3280072,60836,1700026579,312875520,gx5_link,0.6517930626869202,0.1270575374364853,0.12297292798757553,0.7374956607818604,0.01,0.0,0.0,0.0,0.01,0.0,0.0,0.0,0.01,-0.07488948851823807,-0.002894973149523139,-0.08003998547792435,0.01,0.0,0.0,0.0,0.01,0.0,0.0,0.0,0.01,0.2852266440260224,-9.959753818565606,-1.0923993695013225,0.01,0.0,0.0,0.0,0.01,0.0,0.0,0.0,0.01
1700026579.331177,60837,1700026579,322882816,gx5_link,0.6513226628303528,0.12742385268211365,0.12261606752872467,0.7379074692726135,0.01,0.0,0.0,0.0,0.01,0.0,0.0,0.0,0.01,-0.10259522497653961,-0.0020651824306696653,-0.11894823610782623,0.01,0.0,0.0,0.0,0.01,0.0,0.0,0.0,0.01,0.2661480687423609,-9.953744933539628,-1.1297755257587878,0.01,0.0,0.0,0.0,0.01,0.0,0.0,0.0,0.01
1700026579.3429427,60838,1700026579,332892160,gx5_link,0.650748610496521,0.12784984707832336,0.12212046980857849,0.7384222149848938,0.01,0.0,0.0,0.0,0.01,0.0,0.0,0.0,0.01,-0.12603676319122314,-0.008871001191437244,-0.15199828147888184,0.01,0.0,0.0,0.0,0.01,0.0,0.0,0.0,0.01,0.25611955454517155,-9.967644864076375,-1.1324058742623775,0.01,0.0,0.0,0.0,0.01,0.0,0.0,0.0,0.01
1700026579.3502991,60839,1700026579,342898176,gx5_link,0.6501622796058655,0.12832514941692352,0.1215544193983078,0.7389494180679321,0.01,0.0,0.0,0.0,0.01,0.0,0.0,0.0,0.01,-0.12953248620033264,-0.01190378237515688,-0.17195011675357819,0.01,0.0,0.0,0.0,0.01,0.0,0.0,0.0,0.01,0.22229314492484553,-10.098437482112645,-1.1476414373170585,0.01,0.0,0.0,0.0,0.01,0.0,0.0,0.0,0.01
1700026579.3620133,60840,1700026579,352905984,gx5_link,0.6496183276176453,0.12873360514640808,0.12103351205587387,0.7394421100616455,0.01,0.0,0.0,0.0,0.01,0.0,0.0,0.0,0.01,-0.12520278990268707,-0.01588333211839199,-0.16013023257255554,0.01,0.0,0.0,0.0,0.01,0.0,0.0,0.0,0.01,0.19602266710940747,-10.304226596683263,-1.1100136443860829,0.01,0.0,0.0,0.0,0.01,0.0,0.0,0.0,0.01
1700026579.3738687,60841,1700026579,362915840,gx5_link,0.6491445302963257,0.129024937748909,0.12066446989774704,0.7398675680160522,0.01,0.0,0.0,0.0,0.01,0.0,0.0,0.0,0.01,-0.11694766581058502,-0.015691425651311874,-0.12589538097381592,0.01,0.0,0.0,0.0,0.01,0.0,0.0,0.0,0.01,0.17692140506990253,-10.476959829348326,-1.0555465064655989,0.01,0.0,0.0,0.0,0.01,0.0,0.0,0.0,0.01
1700026579.3865302,60842,1700026579,372920832,gx5_link,0.6487265229225159,0.12917979061603546,0.12048280984163284,0.7402366995811462,0.01,0.0,0.0,0.0,0.01,0.0,0.0,0.0,0.01,-0.11235042661428452,-0.013515916652977467,-0.08024011552333832,0.01,0.0,0.0,0.0,0.01,0.0,0.0,0.0,0.01,0.15872003274587915,-10.598377885317802,-1.0526023427724838,0.01,0.0,0.0,0.0,0.01,0.0,0.0,0.0,0.01
1700026579.3916607,60843,1700026579,382928640,gx5_link,0.6483280658721924,0.12917476892471313,0.12050749361515045,0.7405825853347778,0.01,0.0,0.0,0.0,0.01,0.0,0.0,0.0,0.01,-0.11382107436656952,-0.011128694750368595,-0.03109903261065483,0.01,0.0,0.0,0.0,0.01,0.0,0.0,0.0,0.01,0.1518994934102986,-10.579493152105808,-1.0596681164402515,0.01,0.0,0.0,0.0,0.01,0.0,0.0,0.0,0.01
1700026579.403873,60844,1700026579,392938240,gx5_link,0.647921085357666,0.12907011806964874,0.12071004509925842,0.7409240007400513,0.01,0.0,0.0,0.0,0.01,0.0,0.0,0.0,0.01,-0.12340798228979111,-0.00392945297062397,0.008625142276287079,0.01,0.0,0.0,0.0,0.01,0.0,0.0,0.0,0.01,0.16173293255995957,-10.47221584969163,-0.9618996699970215,0.01,0.0,0.0,0.0,0.01,0.0,0.0,0.0,0.01
1700026579.4097216,60845,1700026579,402943488,gx5_link,0.6474969983100891,0.12893682718276978,0.12103059887886047,0.741265594959259,0.01,0.0,0.0,0.0,0.01,0.0,0.0,0.0,0.01,-0.1304202675819397,0.007632843684405088,0.033876076340675354,0.01,0.0,0.0,0.0,0.01,0.0,0.0,0.0,0.01,0.20775964745860545,-10.272599286276101,-0.9088810503844171,0.01,0.0,0.0,0.0,0.01,0.0,0.0,0.0,0.01
1700026579.4207108,60846,1700026579,412950272,gx5_link,0.6470520496368408,0.12885169684886932,0.12146066129207611,0.7415984869003296,0.01,0.0,0.0,0.0,0.01,0.0,0.0,0.0,0.01,-0.13318414986133575,0.028343088924884796,0.0483148917555809,0.01,0.0,0.0,0.0,0.01,0.0,0.0,0.0,0.01,0.2549740743044764,-10.093339282190799,-0.940507045617327,0.01,0.0,0.0,0.0,0.01,0.0,0.0,0.0,0.01
1700026579.4331172,60847,1700026579,422959360,gx5_link,0.6466403007507324,0.12876412272453308,0.12193380296230316,0.7418950796127319,0.01,0.0,0.0,0.0,0.01,0.0,0.0,0.0,0.01,-0.1222776398062706,0.03717583417892456,0.05989733338356018,0.01,0.0,0.0,0.0,0.01,0.0,0.0,0.0,0.01,0.2938462595396675,-10.009138903981446,-1.019742275699973,0.01,0.0,0.0,0.0,0.01,0.0,0.0,0.0,0.01
1700026579.4479547,60848,1700026579,432967168,gx5_link,0.6462610363960266,0.12864097952842712,0.12243378162384033,0.7421645522117615,0.01,0.0,0.0,0.0,0.01,0.0,0.0,0.0,0.01,-0.11133629828691483,0.037037443369627,0.07195208221673965,0.01,0.0,0.0,0.0,0.01,0.0,0.0,0.0,0.01,0.35032756856046615,-9.95545992076397,-1.1601103852026164,0.01,0.0,0.0,0.0,0.01,0.0,0.0,0.0,0.01
1700026579.4510717,60849,1700026579,442974464,gx5_link,0.645910918712616,0.12848110496997833,0.12290371209383011,0.7424193024635315,0.01,0.0,0.0,0.0,0.01,0.0,0.0,0.0,0.01,-0.10192231833934784,0.028530053794384003,0.07670148462057114,0.01,0.0,0.0,0.0,0.01,0.0,0.0,0.0,0.01,0.4383269371939823,-9.893892230123281,-1.2934662778556345,0.01,0.0,0.0,0.0,0.01,0.0,0.0,0.0,0.01
1700026579.4634194,60850,1700026579,452983808,gx5_link,0.6455485224723816,0.1283007264137268,0.1231936663389206,0.7427176237106323,0.01,0.0,0.0,0.0,0.01,0.0,0.0,0.0,0.01,-0.10582345724105835,0.00535727571696043,0.05495799332857132,0.01,0.0,0.0,0.0,0.01,0.0,0.0,0.0,0.01,0.4883303371712565,-9.780048993322252,-1.3519352718286215,0.01,0.0,0.0,0.0,0.01,0.0,0.0,0.0,0.01
1700026579.470239,60851,1700026579,462989568,gx5_link,0.6450925469398499,0.12809117138385773,0.12326261401176453,0.7431383728981018,0.01,0.0,0.0,0.0,0.01,0.0,0.0,0.0,0.01,-0.12363522499799728,-0.025432782247662544,0.02507796883583069,0.01,0.0,0.0,0.0,0.01,0.0,0.0,0.0,0.01,0.5056988571340217,-9.795773801198601,-1.3926054281301796,0.01,0.0,0.0,0.0,0.01,0.0,0.0,0.0,0.01
1700026579.4819107,60852,1700026579,472997376,gx5_link,0.6445700526237488,0.12782086431980133,0.12317067384719849,0.7436533570289612,0.01,0.0,0.0,0.0,0.01,0.0,0.0,0.0,0.01,-0.14071941375732422,-0.05592237785458565,0.004774259403347969,0.01,0.0,0.0,0.0,0.01,0.0,0.0,0.0,0.01,0.4961843751398846,-9.81628876596093,-1.4568549052007496,0.01,0.0,0.0,0.0,0.01,0.0,0.0,0.0,0.01
1700026579.4937813,60853,1700026579,483006720,gx5_link,0.6440526247024536,0.12743297219276428,0.12300774455070496,0.7441949844360352,0.01,0.0,0.0,0.0,0.01,0.0,0.0,0.0,0.01,-0.14691786468029022,-0.08367998898029327,0.005612330511212349,0.01,0.0,0.0,0.0,0.01,0.0,0.0,0.0,0.01,0.45907720854952927,-9.83949077785015,-1.4576701671063899,0.01,0.0,0.0,0.0,0.01,0.0,0.0,0.0,0.01
1700026579.5052822,60854,1700026579,493011712,gx5_link,0.6435753703117371,0.1268826574087143,0.12283932417631149,0.7447295188903809,0.01,0.0,0.0,0.0,0.01,0.0,0.0,0.0,0.01,-0.14393919706344604,-0.10942843556404114,0.020689375698566437,0.01,0.0,0.0,0.0,0.01,0.0,0.0,0.0,0.01,0.3813644753264263,-9.827222832429408,-1.5208170897625386,0.01,0.0,0.0,0.0,0.01,0.0,0.0,0.0,0.01
1700026579.511735,60855,1700026579,503019520,gx5_link,0.6431189179420471,0.12620098888874054,0.12270813435316086,0.7452611923217773,0.01,0.0,0.0,0.0,0.01,0.0,0.0,0.0,0.01,-0.1473725438117981,-0.12590844929218292,0.03849855065345764,0.01,0.0,0.0,0.0,0.01,0.0,0.0,0.0,0.01,0.3022704072801396,-9.808535667616129,-1.4648089329451321,0.01,0.0,0.0,0.0,0.01,0.0,0.0,0.0,0.01
1700026579.5234091,60856,1700026579,513028864,gx5_link,0.6426712870597839,0.12549036741256714,0.12266195565462112,0.7457746267318726,0.01,0.0,0.0,0.0,0.01,0.0,0.0,0.0,0.01,-0.1513390690088272,-0.12449511140584946,0.05464807525277138,0.01,0.0,0.0,0.0,0.01,0.0,0.0,0.0,0.01,0.2494044026796706,-9.763371999287605,-1.3355106451198457,0.01,0.0,0.0,0.0,0.01,0.0,0.0,0.0,0.01
1700026579.5294502,60857,1700026579,523034112,gx5_link,0.6422383189201355,0.12479100376367569,0.12276852130889893,0.7462472915649414,0.01,0.0,0.0,0.0,0.01,0.0,0.0,0.0,0.01,-0.15001948177814484,-0.10587748885154724,0.07671944051980972,0.01,0.0,0.0,0.0,0.01,0.0,0.0,0.0,0.01,0.20291005200296638,-9.733501761680841,-1.2791628810845315,0.01,0.0,0.0,0.0,0.01,0.0,0.0,0.0,0.01
1700026579.5411704,60858,1700026579,533040896,gx5_link,0.6418522000312805,0.12410661578178406,0.12304706871509552,0.7466476559638977,0.01,0.0,0.0,0.0,0.01,0.0,0.0,0.0,0.01,-0.135545551776886,-0.08126866072416306,0.10224165767431259,0.01,0.0,0.0,0.0,0.01,0.0,0.0,0.0,0.01,0.19605432262299582,-9.68691478255093,-1.3183753859236835,0.01,0.0,0.0,0.0,0.01,0.0,0.0,0.0,0.01
1700026579.5544055,60859,1700026579,543051008,gx5_link,0.6415411233901978,0.12345124036073685,0.1234247237443924,0.7469613552093506,0.01,0.0,0.0,0.0,0.01,0.0,0.0,0.0,0.01,-0.11332816630601883,-0.06314927339553833,0.1198052316904068,0.01,0.0,0.0,0.0,0.01,0.0,0.0,0.0,0.01,0.2559919278438203,-9.535057749176024,-1.408061648198217,0.01,0.0,0.0,0.0,0.01,0.0,0.0,0.0,0.01
1700026579.5626032,60860,1700026579,553056768,gx5_link,0.6412763595581055,0.12285295128822327,0.12378771603107452,0.747227132320404,0.01,0.0,0.0,0.0,0.01,0.0,0.0,0.0,0.01,-0.09527260065078735,-0.05477346107363701,0.11820115894079208,0.01,0.0,0.0,0.0,0.01,0.0,0.0,0.0,0.01,0.3465580599591136,-9.395705392587184,-1.51935023208037,0.01,0.0,0.0,0.0,0.01,0.0,0.0,0.0,0.01
1700026579.571657,60861,1700026579,563064064,gx5_link,0.6410243511199951,0.12229544669389725,0.12397972494363785,0.7475029230117798,0.01,0.0,0.0,0.0,0.01,0.0,0.0,0.0,0.01,-0.08274165540933609,-0.06619803607463837,0.0945504903793335,0.01,0.0,0.0,0.0,0.01,0.0,0.0,0.0,0.01,0.41872061170917,-9.261242561605572,-1.6834776950940489,0.01,0.0,0.0,0.0,0.01,0.0,0.0,0.0,0.01
1700026579.5834675,60862,1700026579,573073152,gx5_link,0.6407936811447144,0.12177799642086029,0.12391626089811325,0.7477956414222717,0.01,0.0,0.0,0.0,0.01,0.0,0.0,0.0,0.01,-0.07297204434871674,-0.09130828082561493,0.05595651641488075,0.01,0.0,0.0,0.0,0.01,0.0,0.0,0.0,0.01,0.4681203101722523,-9.203044639658927,-1.7427517218396067,0.01,0.0,0.0,0.0,0.01,0.0,0.0,0.0,0.01
1700026579.590016,60863,1700026579,583079168,gx5_link,0.6405619978904724,0.12132854014635086,0.12358506768941879,0.7481219172477722,0.01,0.0,0.0,0.0,0.01,0.0,0.0,0.0,0.01,-0.0704980120062828,-0.11623172461986542,0.008156642317771912,0.01,0.0,0.0,0.0,0.01,0.0,0.0,0.0,0.01,0.4793467471834272,-9.247747704738378,-1.7126409534752367,0.01,0.0,0.0,0.0,0.01,0.0,0.0,0.0,0.01
1700026579.6019003,60864,1700026579,593086976,gx5_link,0.6402838826179504,0.12092910706996918,0.12300406396389008,0.7485203742980957,0.01,0.0,0.0,0.0,0.01,0.0,0.0,0.0,0.01,-0.07703544944524765,-0.14187483489513397,-0.04023845121264458,0.01,0.0,0.0,0.0,0.01,0.0,0.0,0.0,0.01,0.415470450806804,-9.352366017076372,-1.78873664342314,0.01,0.0,0.0,0.0,0.01,0.0,0.0,0.0,0.01
1700026579.613623,60865,1700026579,603096064,gx5_link,0.639937162399292,0.12053298205137253,0.12221557646989822,0.7490097284317017,0.01,0.0,0.0,0.0,0.01,0.0,0.0,0.0,0.01,-0.09335537999868393,-0.16756658256053925,-0.07919365167617798,0.01,0.0,0.0,0.0,0.01,0.0,0.0,0.0,0.01,0.32776604653187097,-9.574743862876295,-1.7682608416274188,0.01,0.0,0.0,0.0,0.01,0.0,0.0,0.0,0.01
1700026579.6249752,60866,1700026579,613100544,gx5_link,0.6395195126533508,0.12012767046689987,0.12137609720230103,0.7495678663253784,0.01,0.0,0.0,0.0,0.01,0.0,0.0,0.0,0.01,-0.11560172587633133,-0.1796131283044815,-0.09444431215524673,0.01,0.0,0.0,0.0,0.01,0.0,0.0,0.0,0.01,0.2420533457971178,-9.769710554659365,-1.6875428987063466,0.01,0.0,0.0,0.0,0.01,0.0,0.0,0.0,0.01
1700026579.632246,60867,1700026579,623108096,gx5_link,0.6390273571014404,0.11968878656625748,0.12059924006462097,0.7501829862594604,0.01,0.0,0.0,0.0,0.01,0.0,0.0,0.0,0.01,-0.13925065100193024,-0.178550586104393,-0.08999115973711014,0.01,0.0,0.0,0.0,0.01,0.0,0.0,0.0,0.01,0.17465707686711102,-9.9373105160892,-1.600378556124866,0.01,0.0,0.0,0.0,0.01,0.0,0.0,0.0,0.01
1700026579.6439574,60868,1700026579,633117440,gx5_link,0.638461172580719,0.11917200684547424,0.1200205534696579,0.7508398294448853,0.01,0.0,0.0,0.0,0.01,0.0,0.0,0.0,0.01,-0.16301989555358887,-0.16768412292003632,-0.060010794550180435,0.01,0.0,0.0,0.0,0.01,0.0,0.0,0.0,0.01,0.1211134561328683,-10.039128384053706,-1.612654830982536,0.01,0.0,0.0,0.0,0.01,0.0,0.0,0.0,0.01
1700026579.6493254,60869,1700026579,643122432,gx5_link,0.6378680467605591,0.118533656001091,0.11962549388408661,0.7515076994895935,0.01,0.0,0.0,0.0,0.01,0.0,0.0,0.0,0.01,-0.17205892503261566,-0.16143551468849182,-0.02123124897480011,0.01,0.0,0.0,0.0,0.01,0.0,0.0,0.0,0.01,0.08605924001694656,-9.947722019988298,-1.7140867683693766,0.01,0.0,0.0,0.0,0.01,0.0,0.0,0.0,0.01
1700026579.661084,60870,1700026579,653129216,gx5_link,0.637306272983551,0.11778535693883896,0.11938807368278503,0.7521395683288574,0.01,0.0,0.0,0.0,0.01,0.0,0.0,0.0,0.01,-0.17226824164390564,-0.15765678882598877,0.016119632869958878,0.01,0.0,0.0,0.0,0.01,0.0,0.0,0.0,0.01,0.04127123660040088,-9.850671512556076,-1.6955552325092256,0.01,0.0,0.0,0.0,0.01,0.0,0.0,0.0,0.01
1700026579.6749134,60871,1700026579,663138816,gx5_link,0.6367826461791992,0.11698874831199646,0.11927446722984314,0.7527251243591309,0.01,0.0,0.0,0.0,0.01,0.0,0.0,0.0,0.01,-0.16306041181087494,-0.1496998518705368,0.04155445471405983,0.01,0.0,0.0,0.0,0.01,0.0,0.0,0.0,0.01,-0.011045274041278752,-9.645803019961715,-1.7415522829219698,0.01,0.0,0.0,0.0,0.01,0.0,0.0,0.0,0.01
1700026579.6796079,60872,1700026579,673144064,gx5_link,0.6363366842269897,0.11624330282211304,0.11917851865291595,0.7532328367233276,0.01,0.0,0.0,0.0,0.01,0.0,0.0,0.0,0.01,-0.1470005363225937,-0.13881221413612366,0.04387772083282471,0.01,0.0,0.0,0.0,0.01,0.0,0.0,0.0,0.01,-0.03774911318912636,-9.468178508123755,-1.6252265816554425,0.01,0.0,0.0,0.0,0.01,0.0,0.0,0.0,0.01
1700026579.691461,60873,1700026579,683151360,gx5_link,0.6359148025512695,0.11568446457386017,0.11905788630247116,0.7536941170692444,0.01,0.0,0.0,0.0,0.01,0.0,0.0,0.0,0.01,-0.1321500986814499,-0.11661653965711594,0.0203804150223732,0.01,0.0,0.0,0.0,0.01,0.0,0.0,0.0,0.01,-0.050098973872815256,-9.308041137659549,-1.6047598399490117,0.01,0.0,0.0,0.0,0.01,0.0,0.0,0.0,0.01
1700026579.7031758,60874,1700026579,693159936,gx5_link,0.6355112791061401,0.11535662412643433,0.11884988099336624,0.7541173696517944,0.01,0.0,0.0,0.0,0.01,0.0,0.0,0.0,0.01,-0.11593788862228394,-0.09346313029527664,-0.01651638187468052,0.01,0.0,0.0,0.0,0.01,0.0,0.0,0.0,0.01,-0.06802674885326997,-9.3062869874686,-1.6365126764319835,0.01,0.0,0.0,0.0,0.01,0.0,0.0,0.0,0.01
1700026579.7121704,60875,1700026579,703165440,gx5_link,0.6351109743118286,0.11527956277132034,0.11855464428663254,0.7545127272605896,0.01,0.0,0.0,0.0,0.01,0.0,0.0,0.0,0.01,-0.10487519204616547,-0.06695328652858734,-0.0592183843255043,0.01,0.0,0.0,0.0,0.01,0.0,0.0,0.0,0.01,-0.0386822521536611,-9.367882735159993,-1.6657690199241042,0.01,0.0,0.0,0.0,0.01,0.0,0.0,0.0,0.01
1700026579.7218368,60876,1700026579,713172480,gx5_link,0.6347038745880127,0.11542078107595444,0.1181897222995758,0.7548909783363342,0.01,0.0,0.0,0.0,0.01,0.0,0.0,0.0,0.01,-0.09666147083044052,-0.04261232540011406,-0.09433074295520782,0.01,0.0,0.0,0.0,0.01,0.0,0.0,0.0,0.01,0.023647109325195197,-9.444578436827658,-1.6883609370909631,0.01,0.0,0.0,0.0,0.01,0.0,0.0,0.0,0.01
1700026579.7333972,60877,1700026579,723181056,gx5_link,0.6343031525611877,0.11568362265825272,0.11779017746448517,0.7552497982978821,0.01,0.0,0.0,0.0,0.01,0.0,0.0,0.0,0.01,-0.08534841239452362,-0.027737325057387352,-0.11375386267900467,0.01,0.0,0.0,0.0,0.01,0.0,0.0,0.0,0.01,0.09049184303637593,-9.566104044824838,-1.8083515906058252,0.01,0.0,0.0,0.0,0.01,0.0,0.0,0.0,0.01
1700026579.7402306,60878,1700026579,733186560,gx5_link,0.6339020133018494,0.11595723032951355,0.11734779924154282,0.7556134462356567,0.01,0.0,0.0,0.0,0.01,0.0,0.0,0.0,0.01,-0.07941500097513199,-0.027551207691431046,-0.12299531698226929,0.01,0.0,0.0,0.0,0.01,0.0,0.0,0.0,0.01,0.1472766102494672,-9.63980699441731,-1.9513231606051324,0.01,0.0,0.0,0.0,0.01,0.0,0.0,0.0,0.01
1700026579.752773,60879,1700026579,743193856,gx5_link,0.6335033774375916,0.11623498052358627,0.11688177287578583,0.7559773325920105,0.01,0.0,0.0,0.0,0.01,0.0,0.0,0.0,0.01,-0.0787341296672821,-0.0303949061781168,-0.1261489987373352,0.01,0.0,0.0,0.0,0.01,0.0,0.0,0.0,0.01,0.2100571838112548,-9.703062784275412,-1.9749138795509933,0.01,0.0,0.0,0.0,0.01,0.0,0.0,0.0,0.01
1700026579.7638526,60880,1700026579,753203200,gx5_link,0.6331024765968323,0.11648693680763245,0.11642932891845703,0.7563440203666687,0.01,0.0,0.0,0.0,0.01,0.0,0.0,0.0,0.01,-0.08243455737829208,-0.03178371861577034,-0.12054651230573654,0.01,0.0,0.0,0.0,0.01,0.0,0.0,0.0,0.01,0.2584033728997223,-9.721476977366208,-1.9392450386680662,0.01,0.0,0.0,0.0,0.01,0.0,0.0,0.0,0.01
1700026579.7690866,60881,1700026579,763207680,gx5_link,0.6326833963394165,0.1166444644331932,0.11601223051548004,0.7567344307899475,0.01,0.0,0.0,0.0,0.01,0.0,0.0,0.0,0.01,-0.08887137472629547,-0.040441181510686874,-0.10447834432125092,0.01,0.0,0.0,0.0,0.01,0.0,0.0,0.0,0.01,0.27667030300693585,-9.756640060684084,-1.974704766844958,0.01,0.0,0.0,0.0,0.01,0.0,0.0,0.0,0.01
1700026579.7872033,60882,1700026579,773215232,gx5_link,0.6323047280311584,0.1166977509856224,0.1156737357378006,0.7570944428443909,0.01,0.0,0.0,0.0,0.01,0.0,0.0,0.0,0.01,-0.08466427028179169,-0.04823191463947296,-0.08024431765079498,0.01,0.0,0.0,0.0,0.01,0.0,0.0,0.0,0.01,0.29481019093468785,-9.754847916570306,-1.9581720035865902,0.01,0.0,0.0,0.0,0.01,0.0,0.0,0.0,0.01
1700026579.797962,60883,1700026579,785223680,gx5_link,0.631999135017395,0.1166311502456665,0.1154264286160469,0.7573975324630737,0.01,0.0,0.0,0.0,0.01,0.0,0.0,0.0,0.01,-0.07667934894561768,-0.054002854973077774,-0.049832798540592194,0.01,0.0,0.0,0.0,0.01,0.0,0.0,0.0,0.01,0.3012556955459528,-9.73288801369667,-1.8787386936485766,0.01,0.0,0.0,0.0,0.01,0.0,0.0,0.0,0.01
1700026579.8082216,60884,1700026579,795233536,gx5_link,0.6317281126976013,0.11652912199497223,0.11528626829385757,0.7576606273651123,0.01,0.0,0.0,0.0,0.01,0.0,0.0,0.0,0.01,-0.07083213329315186,-0.04990680515766144,-0.027841486036777496,0.01,0.0,0.0,0.0,0.01,0.0,0.0,0.0,0.01,0.3221826934415847,-9.629001522764563,-1.8092381641820072,0.01,0.0,0.0,0.0,0.01,0.0,0.0,0.0,0.01
1700026579.8144743,60885,1700026579,805239296,gx5_link,0.6314980387687683,0.11642270535230637,0.11520268023014069,0.7578815817832947,0.01,0.0,0.0,0.0,0.01,0.0,0.0,0.0,0.01,-0.06096099317073822,-0.044598158448934555,-0.015104316174983978,0.01,0.0,0.0,0.0,0.01,0.0,0.0,0.0,0.01,0.3071369173379615,-9.59703869679272,-1.784766716878861,0.01,0.0,0.0,0.0,0.01,0.0,0.0,0.0,0.01
1700026579.8247716,60886,1700026579,815246592,gx5_link,0.631359875202179,0.11633582413196564,0.11520162224769592,0.7580100893974304,0.01,0.0,0.0,0.0,0.01,0.0,0.0,0.0,0.01,-0.04381496086716652,-0.03229491040110588,0.00011421309318393469,0.01,0.0,0.0,0.0,0.01,0.0,0.0,0.0,0.01,0.2846675671048462,-9.67257587607503,-1.6439663534387945,0.01,0.0,0.0,0.0,0.01,0.0,0.0,0.0,0.01
1700026579.8492634,60887,1700026579,825257728,gx5_link,0.6313036680221558,0.1162802055478096,0.11532771587371826,0.7580463290214539,0.01,0.0,0.0,0.0,0.01,0.0,0.0,0.0,0.01,-0.02488422393798828,-0.014116221107542515,0.01584881916642189,0.01,0.0,0.0,0.0,0.01,0.0,0.0,0.0,0.01,0.27050896736560387,-9.648240476241707,-1.59210450264588,0.01,0.0,0.0,0.0,0.01,0.0,0.0,0.0,0.01
1700026579.8493176,60888,1700026579,835263744,gx5_link,0.6312861442565918,0.11631020158529282,0.11546726524829865,0.7580350041389465,0.01,0.0,0.0,0.0,0.01,0.0,0.0,0.0,0.01,-0.011404904536902905,0.0012641212670132518,0.01271201390773058,0.01,0.0,0.0,0.0,0.01,0.0,0.0,0.0,0.01,0.31448285965397954,-9.541059035417437,-1.504292363680154,0.01,0.0,0.0,0.0,0.01,0.0,0.0,0.0,0.01
1700026579.8550742,60889,1700026579,845271296,gx5_link,0.6312458515167236,0.11646737158298492,0.11553309857845306,0.758034348487854,0.01,0.0,0.0,0.0,0.01,0.0,0.0,0.0,0.01,-0.011551428586244583,0.01111680082976818,-0.009882636368274689,0.01,0.0,0.0,0.0,0.01,0.0,0.0,0.0,0.01,0.3794618200428784,-9.531406825453043,-1.5391583637475967,0.01,0.0,0.0,0.0,0.01,0.0,0.0,0.0,0.01
1700026579.8734515,60890,1700026579,855287040,gx5_link,0.6311380863189697,0.11671679466962814,0.11548586934804916,0.7580929398536682,0.01,0.0,0.0,0.0,0.01,0.0,0.0,0.0,0.01,-0.020132308825850487,0.011163126677274704,-0.03753732517361641,0.01,0.0,0.0,0.0,0.01,0.0,0.0,0.0,0.01,0.419931887195073,-9.547145077332853,-1.5499338786534964,0.01,0.0,0.0,0.0,0.01,0.0,0.0,0.0,0.01
1700026579.8753898,60891,1700026579,863295488,gx5_link,0.6309762001037598,0.11699070036411285,0.11531293392181396,0.7582117915153503,0.01,0.0,0.0,0.0,0.01,0.0,0.0,0.0,0.01,-0.032259758561849594,0.002085559070110321,-0.06041361391544342,0.01,0.0,0.0,0.0,0.01,0.0,0.0,0.0,0.01,0.44973764473088085,-9.612247956362365,-1.5690087276101112,0.01,0.0,0.0,0.0,0.01,0.0,0.0,0.0,0.01
1700026579.8852885,60892,1700026579,873305088,gx5_link,0.6307764053344727,0.11723224818706512,0.11511483788490295,0.7583708167076111,0.01,0.0,0.0,0.0,0.01,0.0,0.0,0.0,0.01,-0.04206428304314613,-0.006500120274722576,-0.06475773453712463,0.01,0.0,0.0,0.0,0.01,0.0,0.0,0.0,0.01,0.44820743948891756,-9.65198433894515,-1.6040617746822534,0.01,0.0,0.0,0.0,0.01,0.0,0.0,0.0,0.01
1700026579.9090533,60893,1700026579,883316480,gx5_link,0.6305626034736633,0.11740709096193314,0.11492893844842911,0.7585497498512268,0.01,0.0,0.0,0.0,0.01,0.0,0.0,0.0,0.01,-0.049359261989593506,-0.014470554888248444,-0.05915245786309242,0.01,0.0,0.0,0.0,0.01,0.0,0.0,0.0,0.01,0.4082645745486021,-9.686927642032504,-1.6323615481019018,0.01,0.0,0.0,0.0,0.01,0.0,0.0,0.0,0.01
1700026579.9091015,60894,1700026579,893324800,gx5_link,0.6303274035453796,0.11751454323530197,0.114797443151474,0.758748471736908,0.01,0.0,0.0,0.0,0.01,0.0,0.0,0.0,0.01,-0.05848231539130211,-0.016803817823529243,-0.046273451298475266,0.01,0.0,0.0,0.0,0.01,0.0,0.0,0.0,0.01,0.368292739242129,-9.710111533743143,-1.574183646029979,0.01,0.0,0.0,0.0,0.01,0.0,0.0,0.0,0.01
1700026579.915695,60895,1700026579,903334656,gx5_link,0.6300838589668274,0.11760693043470383,0.11479746550321579,0.7589364051818848,0.01,0.0,0.0,0.0,0.01,0.0,0.0,0.0,0.01,-0.06694620847702026,-0.006993505638092756,-0.026475196704268456,0.01,0.0,0.0,0.0,0.01,0.0,0.0,0.0,0.01,0.36133020675312727,-9.704581372144817,-1.4898786384023726,0.01,0.0,0.0,0.0,0.01,0.0,0.0,0.0,0.01
1700026579.9273655,60896,1700026579,913346560,gx5_link,0.6298277974128723,0.11769271641969681,0.11492155492305756,0.7591168880462646,0.01,0.0,0.0,0.0,0.01,0.0,0.0,0.0,0.01,-0.06809692084789276,0.008449697867035866,-0.006590376608073711,0.01,0.0,0.0,0.0,0.01,0.0,0.0,0.0,0.01,0.40230278006736186,-9.58947147640884,-1.533179435468465,0.01,0.0,0.0,0.0,0.01,0.0,0.0,0.0,0.01
1700026579.9333131,60897,1700026579,923353600,gx5_link,0.6295921206474304,0.1177665963768959,0.11509772390127182,0.7592741847038269,0.01,0.0,0.0,0.0,0.01,0.0,0.0,0.0,0.01,-0.05852602794766426,0.01493095513433218,0.0077247158624231815,0.01,0.0,0.0,0.0,0.01,0.0,0.0,0.0,0.01,0.4623415806403383,-9.482093051707745,-1.6793030397579074,0.01,0.0,0.0,0.0,0.01,0.0,0.0,0.0,0.01
1700026579.945648,60898,1700026579,933363456,gx5_link,0.629400908946991,0.11780279874801636,0.11525318026542664,0.7594035267829895,0.01,0.0,0.0,0.0,0.01,0.0,0.0,0.0,0.01,-0.04551335424184799,0.009215331636369228,0.014495940878987312,0.01,0.0,0.0,0.0,0.01,0.0,0.0,0.0,0.01,0.5418604865025729,-9.359006770265102,-1.786482142494619,0.01,0.0,0.0,0.0,0.01,0.0,0.0,0.0,0.01
1700026579.9640265,60899,1700026579,943380480,gx5_link,0.6292663812637329,0.11784704029560089,0.1153000071644783,0.759501039981842,0.01,0.0,0.0,0.0,0.01,0.0,0.0,0.0,0.01,-0.027712203562259674,-0.001271710847504437,0.003729413729161024,0.01,0.0,0.0,0.0,0.01,0.0,0.0,0.0,0.01,0.6133340696077794,-9.200983615475893,-1.8873630218699573,0.01,0.0,0.0,0.0,0.01,0.0,0.0,0.0,0.01
1700026579.9677072,60900,1700026579,953388288,gx5_link,0.6291908621788025,0.11788922548294067,0.11516712605953217,0.7595772743225098,0.01,0.0,0.0,0.0,0.01,0.0,0.0,0.0,0.01,-0.007316062226891518,-0.021352995187044144,-0.01803029328584671,0.01,0.0,0.0,0.0,0.01,0.0,0.0,0.0,0.01,0.6384965679150074,-9.11266352698803,-2.0126563118375835,0.01,0.0,0.0,0.0,0.01,0.0,0.0,0.0,0.01
1700026579.9775,60901,1700026579,963397632,gx5_link,0.6291927695274353,0.11793442070484161,0.11486074328422546,0.7596150040626526,0.01,0.0,0.0,0.0,0.01,0.0,0.0,0.0,0.01,0.01596072129905224,-0.04235197976231575,-0.040868885815143585,0.01,0.0,0.0,0.0,0.01,0.0,0.0,0.0,0.01,0.6266768046531825,-9.137888569137454,-2.087603124011308,0.01,0.0,0.0,0.0,0.01,0.0,0.0,0.0,0.01
1700026579.9876125,60902,1700026579,973409792,gx5_link,0.6292864084243774,0.11796057224273682,0.11442010849714279,0.7595998644828796,0.01,0.0,0.0,0.0,0.01,0.0,0.0,0.0,0.01,0.037295810878276825,-0.06350600719451904,-0.057622794061899185,0.01,0.0,0.0,0.0,0.01,0.0,0.0,0.0,0.01,0.5980575169555843,-9.225684341490268,-2.084231309490651,0.01,0.0,0.0,0.0,0.01,0.0,0.0,0.0,0.01
1700026579.99335,60903,1700026579,983417344,gx5_link,0.6294598579406738,0.11796215921640396,0.11393822729587555,0.7595283389091492,0.01,0.0,0.0,0.0,0.01,0.0,0.0,0.0,0.01,0.05457322299480438,-0.07547826319932938,-0.06160178780555725,0.01,0.0,0.0,0.0,0.01,0.0,0.0,0.0,0.01,0.5492404772186652,-9.387498120734096,-2.031957370765507,0.01,0.0,0.0,0.0,0.01,0.0,0.0,0.0,0.01
1700026580.011368,60904,1700026579,993427456,gx5_link,0.6296886205673218,0.11793763190507889,0.1135159581899643,0.7594057321548462,0.01,0.0,0.0,0.0,0.01,0.0,0.0,0.0,0.01,0.06358309835195541,-0.07532784342765808,-0.0499340295791626,0.01,0.0,0.0,0.0,0.01,0.0,0.0,0.0,0.01,0.5146357584359124,-9.533320550119877,-1.9298137779779732,0.01,0.0,0.0,0.0,0.01,0.0,0.0,0.0,0.01
1700026580.0169692,60905,1700026580,3438592,gx5_link,0.629928708076477,0.11786101758480072,0.11318807303905487,0.7592674493789673,0.01,0.0,0.0,0.0,0.01,0.0,0.0,0.0,0.01,0.06565490365028381,-0.07251095026731491,-0.033022861927747726,0.01,0.0,0.0,0.0,0.01,0.0,0.0,0.0,0.01,0.47811691312752663,-9.618819151446223,-1.9619358861647545,0.01,0.0,0.0,0.0,0.01,0.0,0.0,0.0,0.01
1700026580.0270004,60906,1700026580,13446400,gx5_link,0.63016277551651,0.11770899593830109,0.11291778087615967,0.7591370344161987,0.01,0.0,0.0,0.0,0.01,0.0,0.0,0.0,0.01,0.06208794191479683,-0.07614647597074509,-0.01686430163681507,0.01,0.0,0.0,0.0,0.01,0.0,0.0,0.0,0.01,0.4445026666868478,-9.657105335220693,-1.953297091026604,0.01,0.0,0.0,0.0,0.01,0.0,0.0,0.0,0.01
1700026580.0367115,60907,1700026580,23456000,gx5_link,0.6303625106811523,0.11748713999986649,0.11267756670713425,0.7590413689613342,0.01,0.0,0.0,0.0,0.01,0.0,0.0,0.0,0.01,0.05016733705997467,-0.08085915446281433,-0.0024208007380366325,0.01,0.0,0.0,0.0,0.01,0.0,0.0,0.0,0.01,0.44091768433954565,-9.763767720606923,-1.9289501468859611,0.01,0.0,0.0,0.0,0.01,0.0,0.0,0.0,0.01
1700026580.054046,60908,1700026580,33473792,gx5_link,0.6305198073387146,0.11718966066837311,0.11251449584960938,0.7589808106422424,0.01,0.0,0.0,0.0,0.01,0.0,0.0,0.0,0.01,0.0353451743721962,-0.08556054532527924,0.014341859146952629,0.01,0.0,0.0,0.0,0.01,0.0,0.0,0.0,0.01,0.4358590492431074,-9.836447756892442,-1.909687374141812,0.01,0.0,0.0,0.0,0.01,0.0,0.0,0.0,0.01
1700026580.0625706,60909,1700026580,43482368,gx5_link,0.630581796169281,0.11679860204458237,0.11234445124864578,0.7590147852897644,0.01,0.0,0.0,0.0,0.01,0.0,0.0,0.0,0.01,0.009476467967033386,-0.09962254762649536,0.02059652842581272,0.01,0.0,0.0,0.0,0.01,0.0,0.0,0.0,0.01,0.39944629465769976,-9.832474177086352,-1.949216543714702,0.01,0.0,0.0,0.0,0.01,0.0,0.0,0.0,0.01
1700026580.0682404,60910,1700026580,53492224,gx5_link,0.6305440068244934,0.11631570011377335,0.11214198917150497,0.7591502666473389,0.01,0.0,0.0,0.0,0.01,0.0,0.0,0.0,0.01,-0.020288117229938507,-0.11698148399591446,0.021715836599469185,0.01,0.0,0.0,0.0,0.01,0.0,0.0,0.0,0.01,0.36060382870733737,-9.840565129083394,-1.898954675464332,0.01,0.0,0.0,0.0,0.01,0.0,0.0,0.0,0.01
1700026580.078382,60911,1700026580,63503616,gx5_link,0.6304309368133545,0.11577875167131424,0.11192742735147476,0.7593578696250916,0.01,0.0,0.0,0.0,0.01,0.0,0.0,0.0,0.01,-0.045389048755168915,-0.12862490117549896,0.022612806409597397,0.01,0.0,0.0,0.0,0.01,0.0,0.0,0.0,0.01,0.29594595349896696,-9.842698633980751,-1.7957323475293814,0.01,0.0,0.0,0.0,0.01,0.0,0.0,0.0,0.01
1700026580.0841668,60912,1700026580,73510656,gx5_link,0.6302935481071472,0.11517257243394852,0.11175357550382614,0.759589672088623,0.01,0.0,0.0,0.0,0.01,0.0,0.0,0.0,0.01,-0.05763471499085426,-0.13500361144542694,0.03337922692298889,0.01,0.0,0.0,0.0,0.01,0.0,0.0,0.0,0.01,0.22362273129448293,-9.840530057770014,-1.7208749672047794,0.01,0.0,0.0,0.0,0.01,0.0,0.0,0.0,0.01
1700026580.0955393,60913,1700026580,83520768,gx5_link,0.6301906704902649,0.11447601020336151,0.11166339367628098,0.7597935795783997,0.01,0.0,0.0,0.0,0.01,0.0,0.0,0.0,0.01,-0.05706027150154114,-0.13885711133480072,0.05451206862926483,0.01,0.0,0.0,0.0,0.01,0.0,0.0,0.0,0.01,0.1427688048356678,-9.876239669054746,-1.6893322663411496,0.01,0.0,0.0,0.0,0.01,0.0,0.0,0.0,0.01
1700026580.1073244,60914,1700026580,93532672,gx5_link,0.6301199197769165,0.11371748894453049,0.11167459934949875,0.7599645853042603,0.01,0.0,0.0,0.0,0.01,0.0,0.0,0.0,0.01,-0.05349782109260559,-0.13844327628612518,0.07607461512088776,0.01,0.0,0.0,0.0,0.01,0.0,0.0,0.0,0.01,0.08606324033862911,-9.853955356532335,-1.6413446266330778,0.01,0.0,0.0,0.0,0.01,0.0,0.0,0.0,0.01
1700026580.1133888,60915,1700026580,103539968,gx5_link,0.6300774216651917,0.1129201352596283,0.11176997423171997,0.7601045370101929,0.01,0.0,0.0,0.0,0.01,0.0,0.0,0.0,0.01,-0.05114128068089485,-0.13365931808948517,0.09416475147008896,0.01,0.0,0.0,0.0,0.01,0.0,0.0,0.0,0.01,0.02567283614927437,-9.839034850776194,-1.6051722201421856,0.01,0.0,0.0,0.0,0.01,0.0,0.0,0.0,0.01
1700026580.1295264,60916,1700026580,113549056,gx5_link,0.630051851272583,0.11213035881519318,0.11194033175706863,0.7602176070213318,0.01,0.0,0.0,0.0,0.01,0.0,0.0,0.0,0.01,-0.04725292697548866,-0.12396850436925888,0.10404480248689651,0.01,0.0,0.0,0.0,0.01,0.0,0.0,0.0,0.01,-0.025131603128754065,-9.779746795505284,-1.6099122542761266,0.01,0.0,0.0,0.0,0.01,0.0,0.0,0.0,0.01
1700026580.143031,60917,1700026580,123566336,gx5_link,0.6300104856491089,0.11138046532869339,0.11213371157646179,0.7603336572647095,0.01,0.0,0.0,0.0,0.01,0.0,0.0,0.0,0.01,-0.046328891068696976,-0.11525841057300568,0.10140609741210938,0.01,0.0,0.0,0.0,0.01,0.0,0.0,0.0,0.01,-0.08323270222097635,-9.680998251983523,-1.6493666050471365,0.01,0.0,0.0,0.0,0.01,0.0,0.0,0.0,0.01
1700026580.1448417,60918,1700026580,133574144,gx5_link,0.6299329400062561,0.11070438474416733,0.11230450123548508,0.7604714632034302,0.01,0.0,0.0,0.0,0.01,0.0,0.0,0.0,0.01,-0.050708454102277756,-0.10588381439447403,0.08935502171516418,0.01,0.0,0.0,0.0,0.01,0.0,0.0,0.0,0.01,-0.13586407608166337,-9.623362055572867,-1.6565427802868187,0.01,0.0,0.0,0.0,0.01,0.0,0.0,0.0,0.01
1700026580.1551023,60919,1700026580,143583232,gx5_link,0.6298321485519409,0.11012449115514755,0.11249544471502304,0.7606109380722046,0.01,0.0,0.0,0.0,0.01,0.0,0.0,0.0,0.01,-0.05421338230371475,-0.0888528898358345,0.0791306123137474,0.01,0.0,0.0,0.0,0.01,0.0,0.0,0.0,0.01,-0.18539951148731634,-9.61611924483776,-1.6192274873711168,0.01,0.0,0.0,0.0,0.01,0.0,0.0,0.0,0.01
1700026580.1669593,60920,1700026580,153593856,gx5_link,0.629729688167572,0.10964862257242203,0.11275188624858856,0.7607265114784241,0.01,0.0,0.0,0.0,0.01,0.0,0.0,0.0,0.01,-0.05262424796819687,-0.06498394906520844,0.07512540370225906,0.01,0.0,0.0,0.0,0.01,0.0,0.0,0.0,0.01,-0.23251988510787486,-9.573362637650966,-1.6050567770689725,0.01,0.0,0.0,0.0,0.01,0.0,0.0,0.0,0.01
1700026580.1738229,60921,1700026580,163601408,gx5_link,0.6296136975288391,0.10927437990903854,0.11304830014705658,0.7608323097229004,0.01,0.0,0.0,0.0,0.01,0.0,0.0,0.0,0.01,-0.05038120225071907,-0.042881689965724945,0.06714484840631485,0.01,0.0,0.0,0.0,0.01,0.0,0.0,0.0,0.01,-0.26185632636519146,-9.536588612005113,-1.622422922411561,0.01,0.0,0.0,0.0,0.01,0.0,0.0,0.0,0.01
1700026580.1838443,60922,1700026580,173610496,gx5_link,0.6294677257537842,0.10905566066503525,0.11339972168207169,0.7609321475028992,0.01,0.0,0.0,0.0,0.01,0.0,0.0,0.0,0.01,-0.05225963145494461,-0.013639617711305618,0.05568066984415054,0.01,0.0,0.0,0.0,0.01,0.0,0.0,0.0,0.01,-0.27131820138925683,-9.547228079441188,-1.614528808160871,0.01,0.0,0.0,0.0,0.01,0.0,0.0,0.0,0.01
1700026580.1954286,60923,1700026580,183621120,gx5_link,0.6292816996574402,0.10899533331394196,0.11380741745233536,0.7610337734222412,0.01,0.0,0.0,0.0,0.01,0.0,0.0,0.0,0.01,-0.05535972863435745,0.01748570241034031,0.04385397583246231,0.01,0.0,0.0,0.0,0.01,0.0,0.0,0.0,0.01,-0.24906218337956815,-9.463197797101735,-1.6404358412250875,0.01,0.0,0.0,0.0,0.01,0.0,0.0,0.0,0.01
1700026580.2041206,60924,1700026580,193628928,gx5_link,0.6290838122367859,0.10908391326665878,0.1142042726278305,0.7611252069473267,0.01,0.0,0.0,0.0,0.01,0.0,0.0,0.0,0.01,-0.04985792189836502,0.04213694855570793,0.027069857344031334,0.01,0.0,0.0,0.0,0.01,0.0,0.0,0.0,0.01,-0.206547531722486,-9.395568614464997,-1.684459253477305,0.01,0.0,0.0,0.0,0.01,0.0,0.0,0.0,0.01
1700026580.2157521,60925,1700026580,203638784,gx5_link,0.6288784742355347,0.10928726196289062,0.11456961929798126,0.7612108588218689,0.01,0.0,0.0,0.0,0.01,0.0,0.0,0.0,0.01,-0.04133403301239014,0.05774901062250137,0.010587571188807487,0.01,0.0,0.0,0.0,0.01,0.0,0.0,0.0,0.01,-0.14658026201575994,-9.330535293540358,-1.8197392460606991,0.01,0.0,0.0,0.0,0.01,0.0,0.0,0.0,0.01
1700026580.2323763,60926,1700026580,213655808,gx5_link,0.6287322640419006,0.1095258966088295,0.11485224217176437,0.7612548470497131,0.01,0.0,0.0,0.0,0.01,0.0,0.0,0.0,0.01,-0.023267250508069992,0.05666645988821983,-0.003602324053645134,0.01,0.0,0.0,0.0,0.01,0.0,0.0,0.0,0.01,-0.11867502260534092,-9.29901319707334,-1.9481566593982278,0.01,0.0,0.0,0.0,0.01,0.0,0.0,0.0,0.01
1700026580.2448912,60927,1700026580,223663872,gx5_link,0.6286733746528625,0.10977956652641296,0.11506669968366623,0.7612344622612,0.01,0.0,0.0,0.0,0.01,0.0,0.0,0.0,0.01,-0.0023079479578882456,0.052600596100091934,-0.011190850287675858,0.01,0.0,0.0,0.0,0.01,0.0,0.0,0.0,0.01,-0.09415030161184258,-9.323197790259123,-1.898568598756194,0.01,0.0,0.0,0.0,0.01,0.0,0.0,0.0,0.01
1700026580.2475598,60928,1700026580,233673728,gx5_link,0.6287404894828796,0.11007680743932724,0.11529084295034409,0.7611022591590881,0.01,0.0,0.0,0.0,0.01,0.0,0.0,0.0,0.01,0.025083886459469795,0.05642254278063774,-0.010569090023636818,0.01,0.0,0.0,0.0,0.01,0.0,0.0,0.0,0.01,-0.08553504261290654,-9.407046870812772,-1.7734630864456296,0.01,0.0,0.0,0.0,0.01,0.0,0.0,0.0,0.01
1700026580.2574525,60929,1700026580,243684864,gx5_link,0.6289036273956299,0.11044634133577347,0.11561546474695206,0.7608646154403687,0.01,0.0,0.0,0.0,0.01,0.0,0.0,0.0,0.01,0.04788518324494362,0.07604774832725525,-0.002403984544798732,0.01,0.0,0.0,0.0,0.01,0.0,0.0,0.0,0.01,-0.05433257915484719,-9.496056695130466,-1.6673381689369677,0.01,0.0,0.0,0.0,0.01,0.0,0.0,0.0,0.01
1700026580.263129,60930,1700026580,253691392,gx5_link,0.6290972828865051,0.11092585325241089,0.11598050594329834,0.7605791091918945,0.01,0.0,0.0,0.0,0.01,0.0,0.0,0.0,0.01,0.06135977804660797,0.09725508838891983,-0.005529080983251333,0.01,0.0,0.0,0.0,0.01,0.0,0.0,0.0,0.01,0.020528965888218953,-9.484270980268716,-1.666411847872287,0.01,0.0,0.0,0.0,0.01,0.0,0.0,0.0,0.01
1700026580.2746375,60931,1700026580,263699968,gx5_link,0.6292195320129395,0.11154341697692871,0.11625330150127411,0.760345995426178,0.01,0.0,0.0,0.0,0.01,0.0,0.0,0.0,0.01,0.05388156324625015,0.10957320034503937,-0.031776994466781616,0.01,0.0,0.0,0.0,0.01,0.0,0.0,0.0,0.01,0.13364782480429857,-9.466700252264738,-1.6832012162402272,0.01,0.0,0.0,0.0,0.01,0.0,0.0,0.0,0.01
1700026580.2874854,60932,1700026580,273711616,gx5_link,0.6292698979377747,0.11223318427801132,0.11642415076494217,0.7601766586303711,0.01,0.0,0.0,0.0,0.01,0.0,0.0,0.0,0.01,0.043352171778678894,0.10900519788265228,-0.054996639490127563,0.01,0.0,0.0,0.0,0.01,0.0,0.0,0.0,0.01,0.20788712802948428,-9.597474750122428,-1.7649593158639967,0.01,0.0,0.0,0.0,0.01,0.0,0.0,0.0,0.01
1700026580.2933211,60933,1700026580,283718912,gx5_link,0.6293174624443054,0.11288395524024963,0.11656154692173004,0.7600199580192566,0.01,0.0,0.0,0.0,0.01,0.0,0.0,0.0,0.01,0.03882760927081108,0.10128946602344513,-0.05521104112267494,0.01,0.0,0.0,0.0,0.01,0.0,0.0,0.0,0.01,0.27710608234200623,-9.733026545384526,-1.7494098645545542,0.01,0.0,0.0,0.0,0.01,0.0,0.0,0.0,0.01
1700026580.3036656,60934,1700026580,293727744,gx5_link,0.6293774843215942,0.11345157772302628,0.11670360714197159,0.7598639130592346,0.01,0.0,0.0,0.0,0.01,0.0,0.0,0.0,0.01,0.037133004516363144,0.08939318358898163,-0.044288553297519684,0.01,0.0,0.0,0.0,0.01,0.0,0.0,0.0,0.01,0.36025015643145886,-9.73079717889726,-1.7516083975121377,0.01,0.0,0.0,0.0,0.01,0.0,0.0,0.0,0.01
1700026580.3222818,60935,1700026580,303744512,gx5_link,0.629443347454071,0.11391353607177734,0.11683523654937744,0.759719967842102,0.01,0.0,0.0,0.0,0.01,0.0,0.0,0.0,0.01,0.039283253252506256,0.0727371871471405,-0.0322747565805912,0.01,0.0,0.0,0.0,0.01,0.0,0.0,0.0,0.01,0.4364337438585236,-9.643109543094038,-1.8281364875279367,0.01,0.0,0.0,0.0,0.01,0.0,0.0,0.0,0.01
1700026580.3239746,60936,1700026580,313752064,gx5_link,0.6295326352119446,0.11425014585256577,0.11687267571687698,0.7595895528793335,0.01,0.0,0.0,0.0,0.01,0.0,0.0,0.0,0.01,0.04210812598466873,0.044061195105314255,-0.028312694281339645,0.01,0.0,0.0,0.0,0.01,0.0,0.0,0.0,0.01,0.47000922919139265,-9.550775542789697,-1.9013385018609463,0.01,0.0,0.0,0.0,0.01,0.0,0.0,0.0,0.01
1700026580.3349195,60937,1700026580,323761152,gx5_link,0.6296596527099609,0.11450328677892685,0.11684006452560425,0.7594512104988098,0.01,0.0,0.0,0.0,0.01,0.0,0.0,0.0,0.01,0.04695718362927437,0.022311383858323097,-0.026211565360426903,0.01,0.0,0.0,0.0,0.01,0.0,0.0,0.0,0.01,0.47540860401690005,-9.518035887226462,-1.8526668254114687,0.01,0.0,0.0,0.0,0.01,0.0,0.0,0.0,0.01
1700026580.3467145,60938,1700026580,333772032,gx5_link,0.6298571228981018,0.11472416669130325,0.11678190529346466,0.7592630386352539,0.01,0.0,0.0,0.0,0.01,0.0,0.0,0.0,0.01,0.057407721877098083,0.011546649970114231,-0.023790352046489716,0.01,0.0,0.0,0.0,0.01,0.0,0.0,0.0,0.01,0.4521321751846,-9.51268634289205,-1.7175472840867936,0.01,0.0,0.0,0.0,0.01,0.0,0.0,0.0,0.01
1700026580.3555806,60939,1700026580,343779840,gx5_link,0.6300947666168213,0.11493054777383804,0.11676888167858124,0.7590366005897522,0.01,0.0,0.0,0.0,0.01,0.0,0.0,0.0,0.01,0.06849081069231033,0.012081019580364227,-0.016486113891005516,0.01,0.0,0.0,0.0,0.01,0.0,0.0,0.0,0.01,0.41612964536789804,-9.526950430566071,-1.7205178243301809,0.01,0.0,0.0,0.0,0.01,0.0,0.0,0.0,0.01
1700026580.364518,60940,1700026580,354788096,gx5_link,0.6304119825363159,0.11510656774044037,0.11682248115539551,0.7587382197380066,0.01,0.0,0.0,0.0,0.01,0.0,0.0,0.0,0.01,0.08483505994081497,0.014971567317843437,-0.0004914726596325636,0.01,0.0,0.0,0.0,0.01,0.0,0.0,0.0,0.01,0.38000458515007046,-9.576769231224059,-1.6919838037632404,0.01,0.0,0.0,0.0,0.01,0.0,0.0,0.0,0.01
1700026580.3759255,60941,1700026580,365797120,gx5_link,0.6307950615882874,0.11525606364011765,0.11701451241970062,0.7583675384521484,0.01,0.0,0.0,0.0,0.01,0.0,0.0,0.0,0.01,0.0977749302983284,0.027341030538082123,0.023856157436966896,0.01,0.0,0.0,0.0,0.01,0.0,0.0,0.0,0.01,0.36441746871136127,-9.643080901521444,-1.65198029467687,0.01,0.0,0.0,0.0,0.01,0.0,0.0,0.0,0.01
1700026580.387771,60942,1700026580,375808000,gx5_link,0.6311550140380859,0.11541981995105743,0.11729414761066437,0.7579997777938843,0.01,0.0,0.0,0.0,0.01,0.0,0.0,0.0,0.01,0.09453548491001129,0.04051883891224861,0.036798954010009766,0.01,0.0,0.0,0.0,0.01,0.0,0.0,0.0,0.01,0.417778618151322,-9.63816682599485,-1.6649268700115383,0.01,0.0,0.0,0.0,0.01,0.0,0.0,0.0,0.01
1700026580.3951018,60943,1700026580,385814528,gx5_link,0.6314248442649841,0.11560162901878357,0.11752045154571533,0.7577123641967773,0.01,0.0,0.0,0.0,0.01,0.0,0.0,0.0,0.01,0.08171603083610535,0.04014918580651283,0.028241286054253578,0.01,0.0,0.0,0.0,0.01,0.0,0.0,0.0,0.01,0.5010178597109392,-9.573574234575032,-1.8173638952314852,0.01,0.0,0.0,0.0,0.01,0.0,0.0,0.0,0.01
1700026580.412643,60944,1700026580,395829248,gx5_link,0.6315662860870361,0.11580131202936172,0.11758893728256226,0.7575532793998718,0.01,0.0,0.0,0.0,0.01,0.0,0.0,0.0,0.01,0.05708886310458183,0.02518579363822937,0.003281372832134366,0.01,0.0,0.0,0.0,0.01,0.0,0.0,0.0,0.01,0.5569355252332985,-9.600544074565171,-1.9348601015821099,0.01,0.0,0.0,0.0,0.01,0.0,0.0,0.0,0.01
1700026580.4233968,60945,1700026580,405840640,gx5_link,0.6316305994987488,0.11594246327877045,0.11751139909029007,0.7574901580810547,0.01,0.0,0.0,0.0,0.01,0.0,0.0,0.0,0.01,0.035800039768218994,0.0008098206017166376,-0.014914258383214474,0.01,0.0,0.0,0.0,0.01,0.0,0.0,0.0,0.01,0.5467172788839787,-9.723388948467374,-2.0085642202183602,0.01,0.0,0.0,0.0,0.01,0.0,0.0,0.0,0.01
1700026580.4273996,60946,1700026580,415847680,gx5_link,0.6316512227058411,0.1160188689827919,0.11736121028661728,0.7574844360351562,0.01,0.0,0.0,0.0,0.01,0.0,0.0,0.0,0.01,0.019746724516153336,-0.018913961946964264,-0.024640841409564018,0.01,0.0,0.0,0.0,0.01,0.0,0.0,0.0,0.01,0.5063372281027958,-9.781114576727152,-1.9830267511188984,0.01,0.0,0.0,0.0,0.01,0.0,0.0,0.0,0.01
1700026580.4377778,60947,1700026580,425856768,gx5_link,0.6316522359848022,0.11598492413759232,0.11718639731407166,0.7575158476829529,0.01,0.0,0.0,0.0,0.01,0.0,0.0,0.0,0.01,0.010359231382608414,-0.03741145133972168,-0.019007494673132896,0.01,0.0,0.0,0.0,0.01,0.0,0.0,0.0,0.01,0.43993930429406464,-9.825603706794977,-1.9905835962392389,0.01,0.0,0.0,0.0,0.01,0.0,0.0,0.0,0.01
1700026580.4478128,60948,1700026580,435866880,gx5_link,0.6317086815834045,0.11588042974472046,0.11709802597761154,0.757498562335968,0.01,0.0,0.0,0.0,0.01,0.0,0.0,0.0,0.01,0.015201511792838573,-0.040478650480508804,0.0006368438480421901,0.01,0.0,0.0,0.0,0.01,0.0,0.0,0.0,0.01,0.39520193508621304,-9.832601602858304,-1.8908781903840601,0.01,0.0,0.0,0.0,0.01,0.0,0.0,0.0,0.01
1700026580.4578745,60949,1700026580,445874176,gx5_link,0.6318498849868774,0.11568649113178253,0.11714677512645721,0.757402777671814,0.01,0.0,0.0,0.0,0.01,0.0,0.0,0.0,0.01,0.030411766842007637,-0.03874613344669342,0.032511793076992035,0.01,0.0,0.0,0.0,0.01,0.0,0.0,0.0,0.01,0.32732096964549273,-9.890291575282811,-1.8858752675302326,0.01,0.0,0.0,0.0,0.01,0.0,0.0,0.0,0.01
1700026580.4678085,60950,1700026580,455883008,gx5_link,0.632046103477478,0.11536421626806259,0.11729902774095535,0.7572647333145142,0.01,0.0,0.0,0.0,0.01,0.0,0.0,0.0,0.01,0.04149862751364708,-0.04261896386742592,0.06351862847805023,0.01,0.0,0.0,0.0,0.01,0.0,0.0,0.0,0.01,0.2665376160492189,-9.90987773476243,-1.9558197413720189,0.01,0.0,0.0,0.0,0.01,0.0,0.0,0.0,0.01
1700026580.480162,60951,1700026580,465894400,gx5_link,0.6322475671768188,0.11501264572143555,0.11750669777393341,0.757117748260498,0.01,0.0,0.0,0.0,0.01,0.0,0.0,0.0,0.01,0.037502437829971313,-0.04103444516658783,0.07738200575113297,0.01,0.0,0.0,0.0,0.01,0.0,0.0,0.0,0.01,0.2749429312250577,-9.834147078734636,-1.8336437066420912,0.01,0.0,0.0,0.0,0.01,0.0,0.0,0.0,0.01
1700026580.4873633,60952,1700026580,475901952,gx5_link,0.6323722004890442,0.11472949385643005,0.11770515888929367,0.7570257782936096,0.01,0.0,0.0,0.0,0.01,0.0,0.0,0.0,0.01,0.021644916385412216,-0.03387589752674103,0.06920314580202103,0.01,0.0,0.0,0.0,0.01,0.0,0.0,0.0,0.01,0.2833677730852738,-9.769486098253726,-1.7677287805773316,0.01,0.0,0.0,0.0,0.01,0.0,0.0,0.0,0.01
1700026580.5038347,60953,1700026580,485916416,gx5_link,0.6324007511138916,0.11448874324560165,0.11787924915552139,0.7570112943649292,0.01,0.0,0.0,0.0,0.01,0.0,0.0,0.0,0.01,0.003284921869635582,-0.0310968030244112,0.05869625508785248,0.01,0.0,0.0,0.0,0.01,0.0,0.0,0.0,0.01,0.28213474242528896,-9.745616562366486,-1.8144086986877024,0.01,0.0,0.0,0.0,0.01,0.0,0.0,0.0,0.01
1700026580.5074837,60954,1700026580,495927296,gx5_link,0.6323786377906799,0.11426049470901489,0.11800995469093323,0.7570440173149109,0.01,0.0,0.0,0.0,0.01,0.0,0.0,0.0,0.01,-0.008889668621122837,-0.033332459628582,0.04859576374292374,0.01,0.0,0.0,0.0,0.01,0.0,0.0,0.0,0.01,0.30038545205006373,-9.699297878783941,-1.8091216981954872,0.01,0.0,0.0,0.0,0.01,0.0,0.0,0.0,0.01
1700026580.5132453,60955,1700026580,505933568,gx5_link,0.6323664784431458,0.11402896791696548,0.11812727153301239,0.7570706605911255,0.01,0.0,0.0,0.0,0.01,0.0,0.0,0.0,0.01,-0.011848188936710358,-0.034385163336992264,0.048102132976055145,0.01,0.0,0.0,0.0,0.01,0.0,0.0,0.0,0.01,0.3134097139971331,-9.686352472493052,-1.7577395937435327,0.01,0.0,0.0,0.0,0.01,0.0,0.0,0.0,0.01
1700026580.5271585,60956,1700026580,515942400,gx5_link,0.6323850154876709,0.11375244706869125,0.1182442158460617,0.7570785284042358,0.01,0.0,0.0,0.0,0.01,0.0,0.0,0.0,0.01,-0.006658234633505344,-0.0408560149371624,0.05310529097914696,0.01,0.0,0.0,0.0,0.01,0.0,0.0,0.0,0.01,0.3214646448327228,-9.6709339540869,-1.7224274573437868,0.01,0.0,0.0,0.0,0.01,0.0,0.0,0.0,0.01
1700026580.537159,60957,1700026580,525952512,gx5_link,0.6324501633644104,0.11343368887901306,0.11839921772480011,0.757047712802887,0.01,0.0,0.0,0.0,0.01,0.0,0.0,0.0,0.01,0.0037817656993865967,-0.04366261884570122,0.06574264168739319,0.01,0.0,0.0,0.0,0.01,0.0,0.0,0.0,0.01,0.32097887060977515,-9.676936409372091,-1.7610512025095522,0.01,0.0,0.0,0.0,0.01,0.0,0.0,0.0,0.01
1700026580.5438168,60958,1700026580,535959040,gx5_link,0.6325858235359192,0.11303315311670303,0.11856058239936829,0.7569690346717834,0.01,0.0,0.0,0.0,0.01,0.0,0.0,0.0,0.01,0.017117846757173538,-0.054219696670770645,0.07808920741081238,0.01,0.0,0.0,0.0,0.01,0.0,0.0,0.0,0.01,0.2846530453891493,-9.7220159065485,-1.7956486147686839,0.01,0.0,0.0,0.0,0.01,0.0,0.0,0.0,0.01
1700026580.5569165,60959,1700026580,545967616,gx5_link,0.6327298283576965,0.11258764564990997,0.11873257160186768,0.7568880915641785,0.01,0.0,0.0,0.0,0.01,0.0,0.0,0.0,0.01,0.01630391553044319,-0.060539610683918,0.08445214480161667,0.01,0.0,0.0,0.0,0.01,0.0,0.0,0.0,0.01,0.2585939453020692,-9.75321534693241,-1.7141592490836977,0.01,0.0,0.0,0.0,0.01,0.0,0.0,0.0,0.01
1700026580.5723655,60960,1700026580,555977728,gx5_link,0.632843554019928,0.11216079443693161,0.11892227083444595,0.7568265795707703,0.01,0.0,0.0,0.0,0.01,0.0,0.0,0.0,0.01,0.008760333992540836,-0.05836803466081619,0.08483151346445084,0.01,0.0,0.0,0.0,0.01,0.0,0.0,0.0,0.01,0.23834501106478273,-9.742306999427079,-1.670545440545678,0.01,0.0,0.0,0.0,0.01,0.0,0.0,0.0,0.01
1700026580.5743144,60961,1700026580,565984768,gx5_link,0.6328682899475098,0.11176727712154388,0.11909876763820648,0.7568363547325134,0.01,0.0,0.0,0.0,0.01,0.0,0.0,0.0,0.01,-0.007402319926768541,-0.05367235466837883,0.07483404874801636,0.01,0.0,0.0,0.0,0.01,0.0,0.0,0.0,0.01,0.20441338750431312,-9.723704590287804,-1.7286724892131984,0.01,0.0,0.0,0.0,0.01,0.0,0.0,0.0,0.01
1700026580.5937126,60962,1700026580,575998976,gx5_link,0.6328155398368835,0.11144547164440155,0.11925241351127625,0.7569037079811096,0.01,0.0,0.0,0.0,0.01,0.0,0.0,0.0,0.01,-0.02473720721900463,-0.04487470164895058,0.06064428761601448,0.01,0.0,0.0,0.0,0.01,0.0,0.0,0.0,0.01,0.21072995023997498,-9.685316699704527,-1.6860962070293724,0.01,0.0,0.0,0.0,0.01,0.0,0.0,0.0,0.01
1700026580.5986176,60963,1700026580,586010112,gx5_link,0.6327168345451355,0.11121398210525513,0.11939473450183868,0.75699782371521,0.01,0.0,0.0,0.0,0.01,0.0,0.0,0.0,0.01,-0.03163382411003113,-0.033261336386203766,0.04841236770153046,0.01,0.0,0.0,0.0,0.01,0.0,0.0,0.0,0.01,0.22213108623092992,-9.634832128614187,-1.732197740729898,0.01,0.0,0.0,0.0,0.01,0.0,0.0,0.0,0.01
1700026580.607379,60964,1700026580,596017152,gx5_link,0.6326292157173157,0.11099869757890701,0.1195211336016655,0.7570827007293701,0.01,0.0,0.0,0.0,0.01,0.0,0.0,0.0,0.01,-0.023201238363981247,-0.029499588534235954,0.04408726096153259,0.01,0.0,0.0,0.0,0.01,0.0,0.0,0.0,0.01,0.23181518917093052,-9.55699894734919,-1.9007992804177105,0.01,0.0,0.0,0.0,0.01,0.0,0.0,0.0,0.01
1700026580.6168585,60965,1700026580,606026240,gx5_link,0.6326096653938293,0.11076062172651291,0.11962340772151947,0.7571178078651428,0.01,0.0,0.0,0.0,0.01,0.0,0.0,0.0,0.01,-0.005883709993213415,-0.03399360924959183,0.04503669962286949,0.01,0.0,0.0,0.0,0.01,0.0,0.0,0.0,0.01,0.21518751417072488,-9.517266656419634,-1.9994186446018516,0.01,0.0,0.0,0.0,0.01,0.0,0.0,0.0,0.01
1700026580.6280396,60966,1700026580,616037120,gx5_link,0.6326766610145569,0.11051329225301743,0.11973634362220764,0.7570801377296448,0.01,0.0,0.0,0.0,0.01,0.0,0.0,0.0,0.01,0.013385321944952011,-0.03672786056995392,0.04837169125676155,0.01,0.0,0.0,0.0,0.01,0.0,0.0,0.0,0.01,0.18521774344593286,-9.49726373283267,-1.9859166273415088,0.01,0.0,0.0,0.0,0.01,0.0,0.0,0.0,0.01
1700026580.6373913,60967,1700026580,626044160,gx5_link,0.6328034996986389,0.11028014868497849,0.11984635144472122,0.7569906711578369,0.01,0.0,0.0,0.0,0.01,0.0,0.0,0.0,0.01,0.028343018144369125,-0.035479187965393066,0.047827254980802536,0.01,0.0,0.0,0.0,0.01,0.0,0.0,0.0,0.01,0.14548561691315845,-9.549011455726623,-1.9485564723707733,0.01,0.0,0.0,0.0,0.01,0.0,0.0,0.0,0.01
1700026580.6472907,60968,1700026580,636052736,gx5_link,0.632940948009491,0.11005541682243347,0.11995583772659302,0.7568911910057068,0.01,0.0,0.0,0.0,0.01,0.0,0.0,0.0,0.01,0.031412795186042786,-0.03280516341328621,0.04674355313181877,0.01,0.0,0.0,0.0,0.01,0.0,0.0,0.0,0.01,0.12334850344224832,-9.590064181604982,-1.9150281506478786,0.01,0.0,0.0,0.0,0.01,0.0,0.0,0.0,0.01
1700026580.658514,60969,1700026580,646062848,gx5_link,0.6330349445343018,0.10988543182611465,0.12005335092544556,0.7568217515945435,0.01,0.0,0.0,0.0,0.01,0.0,0.0,0.0,0.01,0.02570512890815735,-0.02689136192202568,0.0371868833899498,0.01,0.0,0.0,0.0,0.01,0.0,0.0,0.0,0.01,0.1076853078263346,-9.575321370503305,-1.937876380663365,0.01,0.0,0.0,0.0,0.01,0.0,0.0,0.0,0.01
1700026580.666911,60970,1700026580,656069888,gx5_link,0.6330863833427429,0.10973674803972244,0.1201275959610939,0.7567885518074036,0.01,0.0,0.0,0.0,0.01,0.0,0.0,0.0,0.01,0.016178756952285767,-0.026498885825276375,0.028937188908457756,0.01,0.0,0.0,0.0,0.01,0.0,0.0,0.0,0.01,0.06689675844265147,-9.636574588367342,-1.925368635137379,0.01,0.0,0.0,0.0,0.01,0.0,0.0,0.0,0.01
1700026580.6812313,60971,1700026580,666083840,gx5_link,0.6331241726875305,0.10958487540483475,0.12022465467453003,0.7567635178565979,0.01,0.0,0.0,0.0,0.01,0.0,0.0,0.0,0.01,0.010771190747618675,-0.02291431836783886,0.02999720722436905,0.01,0.0,0.0,0.0,0.01,0.0,0.0,0.0,0.01,0.029559112131246363,-9.640638769066333,-1.905866646809876,0.01,0.0,0.0,0.0,0.01,0.0,0.0,0.0,0.01
1700026580.6878312,60972,1700026580,676094208,gx5_link,0.6331951022148132,0.10944864898920059,0.12038401514291763,0.7566986083984375,0.01,0.0,0.0,0.0,0.01,0.0,0.0,0.0,0.01,0.017401861026883125,-0.015104768797755241,0.03683244064450264,0.01,0.0,0.0,0.0,0.01,0.0,0.0,0.0,0.01,-0.01145390507451957,-9.628474284020065,-1.8642709000959992,0.01,0.0,0.0,0.0,0.01,0.0,0.0,0.0,0.01
1700026580.6973186,60973,1700026580,686100736,gx5_link,0.6333228945732117,0.10932812839746475,0.12060339748859406,0.7565740346908569,0.01,0.0,0.0,0.0,0.01,0.0,0.0,0.0,0.01,0.030681593343615532,-0.006063979584723711,0.04316168278455734,0.01,0.0,0.0,0.0,0.01,0.0,0.0,0.0,0.01,-0.057910807534377086,-9.597382395663857,-1.8471854713909326,0.01,0.0,0.0,0.0,0.01,0.0,0.0,0.0,0.01
1700026580.7073994,60974,1700026580,696110336,gx5_link,0.6334821581840515,0.10926753282546997,0.1208239421248436,0.7564143538475037,0.01,0.0,0.0,0.0,0.01,0.0,0.0,0.0,0.01,0.038787174969911575,0.003638970199972391,0.03856755420565605,0.01,0.0,0.0,0.0,0.01,0.0,0.0,0.0,0.01,-0.055846947506861755,-9.547857609516381,-1.7629563054785131,0.01,0.0,0.0,0.0,0.01,0.0,0.0,0.0,0.01
1700026580.7251408,60975,1700026580,706121472,gx5_link,0.6336144804954529,0.10932820290327072,0.12101608514785767,0.7562640309333801,0.01,0.0,0.0,0.0,0.01,0.0,0.0,0.0,0.01,0.037356309592723846,0.015759628266096115,0.021591978147625923,0.01,0.0,0.0,0.0,0.01,0.0,0.0,0.0,0.01,-0.01904261120442534,-9.5021135109514,-1.7183070164129137,0.01,0.0,0.0,0.0,0.01,0.0,0.0,0.0,0.01
1700026580.7269719,60976,1700026580,716129536,gx5_link,0.6337155699729919,0.10945966839790344,0.12115368992090225,0.7561381459236145,0.01,0.0,0.0,0.0,0.01,0.0,0.0,0.0,0.01,0.0364593043923378,0.021470777690410614,0.007456733845174313,0.01,0.0,0.0,0.0,0.01,0.0,0.0,0.0,0.01,-0.013395013221912085,-9.553549683678149,-1.7665062530450522,0.01,0.0,0.0,0.0,0.01,0.0,0.0,0.0,0.01
1700026580.7368808,60977,1700026580,726137856,gx5_link,0.6338747143745422,0.10952280461788177,0.12128964066505432,0.7559738159179688,0.01,0.0,0.0,0.0,0.01,0.0,0.0,0.0,0.01,0.045660000294446945,0.01316995732486248,0.013354765251278877,0.01,0.0,0.0,0.0,0.01,0.0,0.0,0.0,0.01,-0.0328735681581893,-9.669095632743835,-1.762588202818483,0.01,0.0,0.0,0.0,0.01,0.0,0.0,0.0,0.01
1700026580.747442,60978,1700026580,736147712,gx5_link,0.6341012120246887,0.10953591763973236,0.12148609012365341,0.7557504177093506,0.01,0.0,0.0,0.0,0.01,0.0,0.0,0.0,0.01,0.05519605055451393,0.012020770460367203,0.028662610799074173,0.01,0.0,0.0,0.0,0.01,0.0,0.0,0.0,0.01,-0.04787207333727274,-9.716204589921235,-1.6343268568255007,0.01,0.0,0.0,0.0,0.01,0.0,0.0,0.0,0.01
1700026580.7573438,60979,1700026580,746154752,gx5_link,0.6343691945075989,0.10951802134513855,0.1217244490981102,0.755489706993103,0.01,0.0,0.0,0.0,0.01,0.0,0.0,0.0,0.01,0.06142919510602951,0.010476103983819485,0.03847331181168556,0.01,0.0,0.0,0.0,0.01,0.0,0.0,0.0,0.01,-0.05974544821616728,-9.676987262776493,-1.5428433358706533,0.01,0.0,0.0,0.0,0.01,0.0,0.0,0.0,0.01
1700026580.77251,60980,1700026580,756169728,gx5_link,0.6346098780632019,0.10954798758029938,0.12198958545923233,0.7552404403686523,0.01,0.0,0.0,0.0,0.01,0.0,0.0,0.0,0.01,0.055802278220653534,0.019232919439673424,0.03722456470131874,0.01,0.0,0.0,0.0,0.01,0.0,0.0,0.0,0.01,-0.08534008629638701,-9.66753846642971,-1.4781265335492788,0.01,0.0,0.0,0.0,0.01,0.0,0.0,0.0,0.01
1700026580.7804449,60981,1700026580,766180352,gx5_link,0.634818434715271,0.10963410139083862,0.1222686842083931,0.7550075650215149,0.01,0.0,0.0,0.0,0.01,0.0,0.0,0.0,0.01,0.04948621615767479,0.03050702065229416,0.03199400752782822,0.01,0.0,0.0,0.0,0.01,0.0,0.0,0.0,0.01,-0.09861202112790196,-9.636118661293386,-1.4275428859986363,0.01,0.0,0.0,0.0,0.01,0.0,0.0,0.0,0.01
1700026580.7868645,60982,1700026580,776187392,gx5_link,0.6349814534187317,0.10980864614248276,0.12256591767072678,0.7547968029975891,0.01,0.0,0.0,0.0,0.01,0.0,0.0,0.0,0.01,0.04054137319326401,0.045375119894742966,0.02147858403623104,0.01,0.0,0.0,0.0,0.01,0.0,0.0,0.0,0.01,-0.10981552478806116,-9.60081003202498,-1.3504146381326019,0.01,0.0,0.0,0.0,0.01,0.0,0.0,0.0,0.01
1700026580.7974677,60983,1700026580,786195968,gx5_link,0.6350979804992676,0.11010527610778809,0.12288004159927368,0.7546044588088989,0.01,0.0,0.0,0.0,0.01,0.0,0.0,0.0,0.01,0.031959015876054764,0.06545019894838333,0.008849890902638435,0.01,0.0,0.0,0.0,0.01,0.0,0.0,0.0,0.01,-0.07804768253220244,-9.547382977741956,-1.31703916888386,0.01,0.0,0.0,0.0,0.01,0.0,0.0,0.0,0.01
1700026580.8080332,60984,1700026580,796206592,gx5_link,0.6351565718650818,0.11051910370588303,0.12316516786813736,0.7544481754302979,0.01,0.0,0.0,0.0,0.01,0.0,0.0,0.0,0.01,0.026474187150597572,0.08083592355251312,-0.00971094612032175,0.01,0.0,0.0,0.0,0.01,0.0,0.0,0.0,0.01,-0.05307210793208796,-9.506397471880913,-1.3828535571835934,0.01,0.0,0.0,0.0,0.01,0.0,0.0,0.0,0.01
1700026580.8173935,60985,1700026580,806213120,gx5_link,0.6351762413978577,0.11102046817541122,0.12339534610509872,0.7543203830718994,0.01,0.0,0.0,0.0,0.01,0.0,0.0,0.0,0.01,0.02214466780424118,0.08996037393808365,-0.028824154287576675,0.01,0.0,0.0,0.0,0.01,0.0,0.0,0.0,0.01,-0.02105407432442298,-9.49453986082673,-1.4439856328859924,0.01,0.0,0.0,0.0,0.01,0.0,0.0,0.0,0.01
1700026580.8273885,60986,1700026580,816221440,gx5_link,0.6351850628852844,0.11159202456474304,0.12360755354166031,0.754193902015686,0.01,0.0,0.0,0.0,0.01,0.0,0.0,0.0,0.01,0.022400666028261185,0.09938985854387283,-0.0407225601375103,0.01,0.0,0.0,0.0,0.01,0.0,0.0,0.0,0.01,0.011587846210581483,-9.503858308792113,-1.4648139013811945,0.01,0.0,0.0,0.0,0.01,0.0,0.0,0.0,0.01
1700026580.846033,60987,1700026580,826232320,gx5_link,0.6351746320724487,0.11222139745950699,0.12380314618349075,0.754077136516571,0.01,0.0,0.0,0.0,0.01,0.0,0.0,0.0,0.01,0.01982990838587284,0.10774572193622589,-0.04992246627807617,0.01,0.0,0.0,0.0,0.01,0.0,0.0,0.0,0.01,0.05718039263428654,-9.558406476059556,-1.4954633066669105,0.01,0.0,0.0,0.0,0.01,0.0,0.0,0.0,0.01
1700026580.8478703,60988,1700026580,836238848,gx5_link,0.635140597820282,0.11289618164300919,0.12398984283208847,0.7539744973182678,0.01,0.0,0.0,0.0,0.01,0.0,0.0,0.0,0.01,0.018750324845314026,0.11307720094919205,-0.05666882544755936,0.01,0.0,0.0,0.0,0.01,0.0,0.0,0.0,0.01,0.11514024520847015,-9.590316695061325,-1.5570274901762604,0.01,0.0,0.0,0.0,0.01,0.0,0.0,0.0,0.01
1700026580.8622103,60989,1700026580,846253056,gx5_link,0.6350688338279724,0.11357932537794113,0.12414255738258362,0.7539071440696716,0.01,0.0,0.0,0.0,0.01,0.0,0.0,0.0,0.01,0.013374528847634792,0.11270562559366226,-0.062376298010349274,0.01,0.0,0.0,0.0,0.01,0.0,0.0,0.0,0.01,0.18289841538658363,-9.570571545627713,-1.6530521616920828,0.01,0.0,0.0,0.0,0.01,0.0,0.0,0.0,0.01
1700026580.867548,60990,1700026580,856262912,gx5_link,0.6349669694900513,0.11421037465333939,0.12425438314676285,0.7538792490959167,0.01,0.0,0.0,0.0,0.01,0.0,0.0,0.0,0.01,0.007477308623492718,0.10185042768716812,-0.062487103044986725,0.01,0.0,0.0,0.0,0.01,0.0,0.0,0.0,0.01,0.2075020925009623,-9.628619829970598,-1.737297840347886,0.01,0.0,0.0,0.0,0.01,0.0,0.0,0.0,0.01
1700026580.8774345,60991,1700026580,866270208,gx5_link,0.6348919868469238,0.11474327743053436,0.1243605688214302,0.7538439035415649,0.01,0.0,0.0,0.0,0.01,0.0,0.0,0.0,0.01,0.009034432470798492,0.08699843287467957,-0.05120352283120155,0.01,0.0,0.0,0.0,0.01,0.0,0.0,0.0,0.01,0.23998105130139738,-9.682910223084688,-1.7713760510385035,0.01,0.0,0.0,0.0,0.01,0.0,0.0,0.0,0.01
1700026580.887917,60992,1700026580,877278464,gx5_link,0.6348498463630676,0.11519928276538849,0.12447050958871841,0.7537916898727417,0.01,0.0,0.0,0.0,0.01,0.0,0.0,0.0,0.01,0.01263583917170763,0.07690169662237167,-0.04099419340491295,0.01,0.0,0.0,0.0,0.01,0.0,0.0,0.0,0.01,0.28180306278551,-9.61059960463345,-1.7870910681731997,0.01,0.0,0.0,0.0,0.01,0.0,0.0,0.0,0.01
1700026580.8999,60993,1700026580,888286976,gx5_link,0.6347948908805847,0.11561759561300278,0.12451791763305664,0.7537660598754883,0.01,0.0,0.0,0.0,0.01,0.0,0.0,0.0,0.01,0.011882273480296135,0.06411860138177872,-0.043551333248615265,0.01,0.0,0.0,0.0,0.01,0.0,0.0,0.0,0.01,0.3104706648705527,-9.48310778170824,-1.8057969376869498,0.01,0.0,0.0,0.0,0.01,0.0,0.0,0.0,0.01
1700026580.9092164,60994,1700026580,898297344,gx5_link,0.6347705721855164,0.11601173132658005,0.12449934333562851,0.7537291646003723,0.01,0.0,0.0,0.0,0.01,0.0,0.0,0.0,0.01,0.01798064075410366,0.05113138630986214,-0.0476640947163105,0.01,0.0,0.0,0.0,0.01,0.0,0.0,0.0,0.01,0.2923834569781087,-9.56099064733386,-1.7987446810878813,0.01,0.0,0.0,0.0,0.01,0.0,0.0,0.0,0.01
1700026580.916885,60995,1700026580,908303104,gx5_link,0.6347843408584595,0.11636510491371155,0.1245117112994194,0.7536609768867493,0.01,0.0,0.0,0.0,0.01,0.0,0.0,0.0,0.01,0.02366683818399906,0.046315696090459824,-0.039128776639699936,0.01,0.0,0.0,0.0,0.01,0.0,0.0,0.0,0.01,0.2938420765548944,-9.66931073679924,-1.7830128589488565,0.01,0.0,0.0,0.0,0.01,0.0,0.0,0.0,0.01
1700026580.9273899,60996,1700026580,918310912,gx5_link,0.6347907781600952,0.11672298610210419,0.12453421950340271,0.7535964846611023,0.01,0.0,0.0,0.0,0.01,0.0,0.0,0.0,0.01,0.02009984292089939,0.04762852191925049,-0.038009632378816605,0.01,0.0,0.0,0.0,0.01,0.0,0.0,0.0,0.01,0.3314670199416578,-9.5941891525805,-1.7684475963711737,0.01,0.0,0.0,0.0,0.01,0.0,0.0,0.0,0.01
1700026580.939057,60997,1700026580,928320256,gx5_link,0.6347343921661377,0.11707410961389542,0.12447318434715271,0.7535997033119202,0.01,0.0,0.0,0.0,0.01,0.0,0.0,0.0,0.01,0.010906415060162544,0.038824666291475296,-0.04979267716407776,0.01,0.0,0.0,0.0,0.01,0.0,0.0,0.0,0.01,0.36314569520987566,-9.525670912149549,-1.8391653926730154,0.01,0.0,0.0,0.0,0.01,0.0,0.0,0.0,0.01
1700026580.9538124,60998,1700026580,938333440,gx5_link,0.634657084941864,0.11737892776727676,0.12433960288763046,0.7536393404006958,0.01,0.0,0.0,0.0,0.01,0.0,0.0,0.0,0.01,0.006412430666387081,0.02305482141673565,-0.055669136345386505,0.01,0.0,0.0,0.0,0.01,0.0,0.0,0.0,0.01,0.32140447561070323,-9.587416297444701,-1.9405223651275039,0.01,0.0,0.0,0.0,0.01,0.0,0.0,0.0,0.01
1700026580.9621992,60999,1700026580,948341760,gx5_link,0.6346316337585449,0.11759460717439651,0.12419448792934418,0.7536510229110718,0.01,0.0,0.0,0.0,0.01,0.0,0.0,0.0,0.01,0.0103331059217453,0.008390700444579124,-0.04939017817378044,0.01,0.0,0.0,0.0,0.01,0.0,0.0,0.0,0.01,0.27611118955314157,-9.651732994532585,-1.8535254880674181,0.01,0.0,0.0,0.0,0.01,0.0,0.0,0.0,0.01
1700026580.968882,61000,1700026580,958351360,gx5_link,0.6346444487571716,0.11781653016805649,0.12411264330148697,0.7536191940307617,0.01,0.0,0.0,0.0,0.01,0.0,0.0,0.0,0.01,0.013848274014890194,0.01387022901326418,-0.040666159242391586,0.01,0.0,0.0,0.0,0.01,0.0,0.0,0.0,0.01,0.2592008799529634,-9.643890464338659,-1.6803535717241465,0.01,0.0,0.0,0.0,0.01,0.0,0.0,0.0,0.01
1700026580.9785006,61001,1700026580,968358144,gx5_link,0.6346330642700195,0.11809089034795761,0.12407784909009933,0.7535914778709412,0.01,0.0,0.0,0.0,0.01,0.0,0.0,0.0,0.01,0.012178619392216206,0.02487412840127945,-0.040162503719329834,0.01,0.0,0.0,0.0,0.01,0.0,0.0,0.0,0.01,0.2879362135119736,-9.516009934356807,-1.7109204132929443,0.01,0.0,0.0,0.0,0.01,0.0,0.0,0.0,0.01
1700026580.9884856,61002,1700026580,978366720,gx5_link,0.6346021890640259,0.11839604377746582,0.12399717420339584,0.7535828948020935,0.01,0.0,0.0,0.0,0.01,0.0,0.0,0.0,0.01,0.015457446686923504,0.026362750679254532,-0.047499995678663254,0.01,0.0,0.0,0.0,0.01,0.0,0.0,0.0,0.01,0.3175348311031237,-9.441583931186795,-1.8497627745330332,0.01,0.0,0.0,0.0,0.01,0.0,0.0,0.0,0.01
1700026581.000093,61003,1700026580,988377344,gx5_link,0.6346240043640137,0.1186256855726242,0.12386559695005417,0.7535500526428223,0.01,0.0,0.0,0.0,0.01,0.0,0.0,0.0,0.01,0.02695404924452305,0.01157722994685173,-0.045859094709157944,0.01,0.0,0.0,0.0,0.01,0.0,0.0,0.0,0.01,0.2714688619063236,-9.61945861839354,-1.9050437861196696,0.01,0.0,0.0,0.0,0.01,0.0,0.0,0.0,0.01
1700026581.0084667,61004,1700026580,998383872,gx5_link,0.6347784399986267,0.11873678117990494,0.12380398064851761,0.7534125447273254,0.01,0.0,0.0,0.0,0.01,0.0,0.0,0.0,0.01,0.044393785297870636,0.0006851762882433832,-0.01913762465119362,0.01,0.0,0.0,0.0,0.01,0.0,0.0,0.0,0.01,0.23207913733674213,-9.866611424487829,-1.7510753135487436,0.01,0.0,0.0,0.0,0.01,0.0,0.0,0.0,0.01
1700026581.0199773,61005,1700026581,8391680,gx5_link,0.6349679231643677,0.11879369616508484,0.1238347589969635,0.7532389163970947,0.01,0.0,0.0,0.0,0.01,0.0,0.0,0.0,0.01,0.04955317825078964,0.00020920677343383431,0.0013515785103663802,0.01,0.0,0.0,0.0,0.01,0.0,0.0,0.0,0.01,0.2592506739114411,-9.853737914389372,-1.7035127673849462,0.01,0.0,0.0,0.0,0.01,0.0,0.0,0.0,0.01
1700026581.028638,61006,1700026581,18401024,gx5_link,0.6350837349891663,0.11885876208543777,0.12383381277322769,0.753131091594696,0.01,0.0,0.0,0.0,0.01,0.0,0.0,0.0,0.01,0.037749212235212326,-0.00159328558947891,-0.0025472845882177353,0.01,0.0,0.0,0.0,0.01,0.0,0.0,0.0,0.01,0.29338899902515114,-9.75017700214982,-1.7597000801615417,0.01,0.0,0.0,0.0,0.01,0.0,0.0,0.0,0.01
1700026581.040557,61007,1700026581,28412672,gx5_link,0.6351204514503479,0.11891597509384155,0.12375061213970184,0.7531048059463501,0.01,0.0,0.0,0.0,0.01,0.0,0.0,0.0,0.01,0.018293054774403572,-0.011146582663059235,-0.014987358823418617,0.01,0.0,0.0,0.0,0.01,0.0,0.0,0.0,0.01,0.2841946523634717,-9.745310857418179,-1.7299698355473576,0.01,0.0,0.0,0.0,0.01,0.0,0.0,0.0,0.01
1700026581.0484712,61008,1700026581,38421248,gx5_link,0.6351320147514343,0.11896666884422302,0.12368106096982956,0.7530984282493591,0.01,0.0,0.0,0.0,0.01,0.0,0.0,0.0,0.01,0.00863022729754448,-0.01316320151090622,-0.014698968268930912,0.01,0.0,0.0,0.0,0.01,0.0,0.0,0.0,0.01,0.278332500598114,-9.79818320042789,-1.6516620225079357,0.01,0.0,0.0,0.0,0.01,0.0,0.0,0.0,0.01
1700026581.0598905,61009,1700026581,48431616,gx5_link,0.6351954936981201,0.11902633309364319,0.12369521707296371,0.7530331611633301,0.01,0.0,0.0,0.0,0.01,0.0,0.0,0.0,0.01,0.016346879303455353,-0.0026917613577097654,-0.0029841053765267134,0.01,0.0,0.0,0.0,0.01,0.0,0.0,0.0,0.01,0.28888091048356146,-9.766936413770914,-1.6029589280068874,0.01,0.0,0.0,0.0,0.01,0.0,0.0,0.0,0.01
1700026581.0679638,61010,1700026581,58437120,gx5_link,0.6352869272232056,0.11907347291707993,0.123763307929039,0.752937376499176,0.01,0.0,0.0,0.0,0.01,0.0,0.0,0.0,0.01,0.026058338582515717,0.003386951517313719,0.007023971527814865,0.01,0.0,0.0,0.0,0.01,0.0,0.0,0.0,0.01,0.3035659269833937,-9.659245854380726,-1.6612182247519491,0.01,0.0,0.0,0.0,0.01,0.0,0.0,0.0,0.01
1700026581.0809488,61011,1700026581,68446720,gx5_link,0.6353910565376282,0.11912205815315247,0.12377618253231049,0.7528396844863892,0.01,0.0,0.0,0.0,0.01,0.0,0.0,0.0,0.01,0.032289016991853714,-0.00042120524449273944,0.0012644256930798292,0.01,0.0,0.0,0.0,0.01,0.0,0.0,0.0,0.01,0.31843583506345746,-9.57253495465517,-1.7078335531935094,0.01,0.0,0.0,0.0,0.01,0.0,0.0,0.0,0.01
1700026581.08839,61012,1700026581,78455808,gx5_link,0.6354931592941284,0.11918754875659943,0.12371771037578583,0.7527528405189514,0.01,0.0,0.0,0.0,0.01,0.0,0.0,0.0,0.01,0.03269871696829796,-0.008978019468486309,-0.010170180350542068,0.01,0.0,0.0,0.0,0.01,0.0,0.0,0.0,0.01,0.29599382949499414,-9.608982232564687,-1.680469160927832,0.01,0.0,0.0,0.0,0.01,0.0,0.0,0.0,0.01
1700026581.098503,61013,1700026581,88461824,gx5_link,0.6356267333030701,0.11925996840000153,0.12363262474536896,0.7526425719261169,0.01,0.0,0.0,0.0,0.01,0.0,0.0,0.0,0.01,0.03643063083291054,-0.01162315160036087,-0.014993630349636078,0.01,0.0,0.0,0.0,0.01,0.0,0.0,0.0,0.01,0.25894000052707267,-9.70489350683391,-1.617355702149868,0.01,0.0,0.0,0.0,0.01,0.0,0.0,0.0,0.01
1700026581.1079912,61014,1700026581,98469632,gx5_link,0.6357719302177429,0.11931947618722916,0.12356547266244888,0.7525213956832886,0.01,0.0,0.0,0.0,0.01,0.0,0.0,0.0,0.01,0.03852522000670433,-0.011475483886897564,-0.01308030728250742,0.01,0.0,0.0,0.0,0.01,0.0,0.0,0.0,0.01,0.23107127546845002,-9.761901926735042,-1.5856639482043682,0.01,0.0,0.0,0.0,0.01,0.0,0.0,0.0,0.01
1700026581.1195245,61015,1700026581,108479488,gx5_link,0.6359051465988159,0.11937365680932999,0.12353543192148209,0.7524052858352661,0.01,0.0,0.0,0.0,0.01,0.0,0.0,0.0,0.01,0.03532813489437103,-0.009299248456954956,-0.009403767995536327,0.01,0.0,0.0,0.0,0.01,0.0,0.0,0.0,0.01,0.2153483307556249,-9.763042328941822,-1.5641870065420864,0.01,0.0,0.0,0.0,0.01,0.0,0.0,0.0,0.01
1700026581.1316419,61016,1700026581,118491136,gx5_link,0.6360267400741577,0.11944488435983658,0.12354515492916107,0.7522895932197571,0.01,0.0,0.0,0.0,0.01,0.0,0.0,0.0,0.01,0.032215774059295654,-0.001406466239131987,-0.004857697524130344,0.01,0.0,0.0,0.0,0.01,0.0,0.0,0.0,0.01,0.21774940054798497,-9.784956054586171,-1.53632182514742,0.01,0.0,0.0,0.0,0.01,0.0,0.0,0.0,0.01
1700026581.1410606,61017,1700026581,128500224,gx5_link,0.6361263990402222,0.1195182353258133,0.12358930706977844,0.7521863579750061,0.01,0.0,0.0,0.0,0.01,0.0,0.0,0.0,0.01,0.027745570987462997,0.005223578307777643,0.0008011928875930607,0.01,0.0,0.0,0.0,0.01,0.0,0.0,0.0,0.01,0.23576210016580298,-9.780378663668037,-1.5718296302497385,0.01,0.0,0.0,0.0,0.01,0.0,0.0,0.0,0.01
1700026581.149407,61018,1700026581,138510336,gx5_link,0.6361980438232422,0.11955668032169342,0.12362219393253326,0.7521142959594727,0.01,0.0,0.0,0.0,0.01,0.0,0.0,0.0,0.01,0.024371562525629997,-0.0011355619644746184,0.002587601076811552,0.01,0.0,0.0,0.0,0.01,0.0,0.0,0.0,0.01,0.2755950749908574,-9.693912678614257,-1.686505080091208,0.01,0.0,0.0,0.0,0.01,0.0,0.0,0.0,0.01
1700026581.1579802,61019,1700026581,148516096,gx5_link,0.6362529993057251,0.11954092979431152,0.12355750054121017,0.7520809173583984,0.01,0.0,0.0,0.0,0.01,0.0,0.0,0.0,0.01,0.021293824538588524,-0.01968386024236679,-0.003854725044220686,0.01,0.0,0.0,0.0,0.01,0.0,0.0,0.0,0.01,0.29786513979220763,-9.630813540622592,-1.7446788905099033,0.01,0.0,0.0,0.0,0.01,0.0,0.0,0.0,0.01
1700026581.1684725,61020,1700026581,158524160,gx5_link,0.6363218426704407,0.1195150688290596,0.1234235018491745,0.7520487904548645,0.01,0.0,0.0,0.0,0.01,0.0,0.0,0.0,0.01,0.018953591585159302,-0.030947893857955933,-0.011912615969777107,0.01,0.0,0.0,0.0,0.01,0.0,0.0,0.0,0.01,0.3029145321362652,-9.676106972810626,-1.625251716096699,0.01,0.0,0.0,0.0,0.01,0.0,0.0,0.0,0.01
1700026581.1793637,61021,1700026581,168533760,gx5_link,0.6363947987556458,0.11947809904813766,0.12329623848199844,0.7520137429237366,0.01,0.0,0.0,0.0,0.01,0.0,0.0,0.0,0.01,0.01756313070654869,-0.03487528860569,-0.01187657006084919,0.01,0.0,0.0,0.0,0.01,0.0,0.0,0.0,0.01,0.29100013112723827,-9.68753203766644,-1.6012497860014439,0.01,0.0,0.0,0.0,0.01,0.0,0.0,0.0,0.01
1700026581.1884944,61022,1700026581,178540544,gx5_link,0.6364462971687317,0.11941924691200256,0.12314397841691971,0.7520045638084412,0.01,0.0,0.0,0.0,0.01,0.0,0.0,0.0,0.01,0.015286309644579887,-0.040264636278152466,-0.014459768310189247,0.01,0.0,0.0,0.0,0.01,0.0,0.0,0.0,0.01,0.27148944803662595,-9.64657517337799,-1.6957668294332922,0.01,0.0,0.0,0.0,0.01,0.0,0.0,0.0,0.01
1700026581.1997309,61023,1700026581,188548352,gx5_link,0.636504054069519,0.11931301653385162,0.12294164299964905,0.7520055174827576,0.01,0.0,0.0,0.0,0.01,0.0,0.0,0.0,0.01,0.014583321288228035,-0.05086434260010719,-0.01516665518283844,0.01,0.0,0.0,0.0,0.01,0.0,0.0,0.0,0.01,0.23988011167757212,-9.648051675671338,-1.6657302953489124,0.01,0.0,0.0,0.0,0.01,0.0,0.0,0.0,0.01
1700026581.2091274,61024,1700026581,198558208,gx5_link,0.6365962624549866,0.11919647455215454,0.12278422713279724,0.7519716620445251,0.01,0.0,0.0,0.0,0.01,0.0,0.0,0.0,0.01,0.01822422631084919,-0.049445606768131256,-0.00797216221690178,0.01,0.0,0.0,0.0,0.01,0.0,0.0,0.0,0.01,0.20241309879887848,-9.710947400045395,-1.582552684316039,0.01,0.0,0.0,0.0,0.01,0.0,0.0,0.0,0.01
1700026581.221056,61025,1700026581,208569856,gx5_link,0.6367049217224121,0.11904861778020859,0.12272347509860992,0.7519131302833557,0.01,0.0,0.0,0.0,0.01,0.0,0.0,0.0,0.01,0.020308272913098335,-0.044194936752319336,0.007574562914669514,0.01,0.0,0.0,0.0,0.01,0.0,0.0,0.0,0.01,0.16561452323365955,-9.717199446177482,-1.583358447740972,0.01,0.0,0.0,0.0,0.01,0.0,0.0,0.0,0.01
1700026581.2283752,61026,1700026581,218577152,gx5_link,0.636805534362793,0.11890505999326706,0.12273214757442474,0.7518492341041565,0.01,0.0,0.0,0.0,0.01,0.0,0.0,0.0,0.01,0.020298700779676437,-0.0357201062142849,0.01659531518816948,0.01,0.0,0.0,0.0,0.01,0.0,0.0,0.0,0.01,0.16320179953612388,-9.64612626056671,-1.5886501244083047,0.01,0.0,0.0,0.0,0.01,0.0,0.0,0.0,0.01
1700026581.2390301,61027,1700026581,228586496,gx5_link,0.6368793845176697,0.1188126653432846,0.12275169789791107,0.7517979741096497,0.01,0.0,0.0,0.0,0.01,0.0,0.0,0.0,0.01,0.017193220555782318,-0.025937527418136597,0.01354910060763359,0.01,0.0,0.0,0.0,0.01,0.0,0.0,0.0,0.01,0.1758984186977148,-9.5625185875535,-1.5856187938883899,0.01,0.0,0.0,0.0,0.01,0.0,0.0,0.0,0.01
1700026581.2485857,61028,1700026581,238592768,gx5_link,0.6369364857673645,0.11874459683895111,0.12275511026382446,0.7517598271369934,0.01,0.0,0.0,0.0,0.01,0.0,0.0,0.0,0.01,0.015494110062718391,-0.02310868911445141,0.008313572965562344,0.01,0.0,0.0,0.0,0.01,0.0,0.0,0.0,0.01,0.18275310689806937,-9.528387769892811,-1.6350823513679205,0.01,0.0,0.0,0.0,0.01,0.0,0.0,0.0,0.01
1700026581.2582052,61029,1700026581,248600832,gx5_link,0.6370100378990173,0.11868499219417572,0.12274118512868881,0.7517092823982239,0.01,0.0,0.0,0.0,0.01,0.0,0.0,0.0,0.01,0.019479647278785706,-0.023373570293188095,0.007717173080891371,0.01,0.0,0.0,0.0,0.01,0.0,0.0,0.0,0.01,0.1840895979325287,-9.57578197375238,-1.6356981451787054,0.01,0.0,0.0,0.0,0.01,0.0,0.0,0.0,0.01
1700026581.2695155,61030,1700026581,258610688,gx5_link,0.6371187567710876,0.11862296611070633,0.12270355969667435,0.7516330480575562,0.01,0.0,0.0,0.0,0.01,0.0,0.0,0.0,0.01,0.027185682207345963,-0.024460652843117714,0.0034550828859210014,0.01,0.0,0.0,0.0,0.01,0.0,0.0,0.0,0.01,0.1855832157574594,-9.590386837688088,-1.6314176913805305,0.01,0.0,0.0,0.0,0.01,0.0,0.0,0.0,0.01
1700026581.2785242,61031,1700026581,268617216,gx5_link,0.6372491717338562,0.11855638027191162,0.12262928485870361,0.7515450716018677,0.01,0.0,0.0,0.0,0.01,0.0,0.0,0.0,0.01,0.03244364261627197,-0.03001108206808567,-0.0014869258739054203,0.01,0.0,0.0,0.0,0.01,0.0,0.0,0.0,0.01,0.16843120635589584,-9.635396776759624,-1.634515511265397,0.01,0.0,0.0,0.0,0.01,0.0,0.0,0.0,0.01
1700026581.2884514,61032,1700026581,278625536,gx5_link,0.6373932361602783,0.11850810050964355,0.12252030521631241,0.7514482140541077,0.01,0.0,0.0,0.0,0.01,0.0,0.0,0.0,0.01,0.035111092031002045,-0.03387605398893356,-0.00917541328817606,0.01,0.0,0.0,0.0,0.01,0.0,0.0,0.0,0.01,0.14100881855897604,-9.69586673529148,-1.590291900265962,0.01,0.0,0.0,0.0,0.01,0.0,0.0,0.0,0.01
1700026581.3000047,61033,1700026581,288635648,gx5_link,0.6375084519386292,0.11852565407752991,0.12239394336938858,0.7513683438301086,0.01,0.0,0.0,0.0,0.01,0.0,0.0,0.0,0.01,0.027872541919350624,-0.028530534356832504,-0.020580891519784927,0.01,0.0,0.0,0.0,0.01,0.0,0.0,0.0,0.01,0.11140762541824951,-9.76794939020574,-1.481870250122249,0.01,0.0,0.0,0.0,0.01,0.0,0.0,0.0,0.01
1700026581.311916,61034,1700026581,298647808,gx5_link,0.6375669836997986,0.11861664801836014,0.12226919829845428,0.7513247132301331,0.01,0.0,0.0,0.0,0.01,0.0,0.0,0.0,0.01,0.01770554482936859,-0.01767919957637787,-0.033504653722047806,0.01,0.0,0.0,0.0,0.01,0.0,0.0,0.0,0.01,0.08143534307596273,-9.78962053926587,-1.467388720305264,0.01,0.0,0.0,0.0,0.01,0.0,0.0,0.0,0.01
1700026581.327253,61035,1700026581,308656128,gx5_link,0.637572705745697,0.11878114193677902,0.12215334922075272,0.7513126134872437,0.01,0.0,0.0,0.0,0.01,0.0,0.0,0.0,0.01,0.007918845862150192,-0.004535835701972246,-0.04293310269713402,0.01,0.0,0.0,0.0,0.01,0.0,0.0,0.0,0.01,0.08907880703383125,-9.787893861603736,-1.4326371403977274,0.01,0.0,0.0,0.0,0.01,0.0,0.0,0.0,0.01
1700026581.328603,61036,1700026581,318665216,gx5_link,0.6375603675842285,0.11900678277015686,0.12209568172693253,0.7512967586517334,0.01,0.0,0.0,0.0,0.01,0.0,0.0,0.0,0.01,0.0030119072180241346,0.012094086036086082,-0.04116362705826759,0.01,0.0,0.0,0.0,0.01,0.0,0.0,0.0,0.01,0.10146412262339144,-9.842043969464301,-1.424366740180552,0.01,0.0,0.0,0.0,0.01,0.0,0.0,0.0,0.01
1700026581.338486,61037,1700026581,328671232,gx5_link,0.6375412344932556,0.11922332644462585,0.12212543189525604,0.7512738108634949,0.01,0.0,0.0,0.0,0.01,0.0,0.0,0.0,0.01,0.0020527977030724287,0.022986769676208496,-0.030293604359030724,0.01,0.0,0.0,0.0,0.01,0.0,0.0,0.0,0.01,0.1201776091880165,-9.856921220600604,-1.511934987387806,0.01,0.0,0.0,0.0,0.01,0.0,0.0,0.0,0.01
1700026581.3484445,61038,1700026581,338679040,gx5_link,0.6375040411949158,0.11939830332994461,0.1221742108464241,0.7512696385383606,0.01,0.0,0.0,0.0,0.01,0.0,0.0,0.0,0.01,-0.0010123823303729296,0.02226516790688038,-0.021583709865808487,0.01,0.0,0.0,0.0,0.01,0.0,0.0,0.0,0.01,0.156751801412832,-9.833312381476164,-1.5842121419608592,0.01,0.0,0.0,0.0,0.01,0.0,0.0,0.0,0.01
1700026581.3597095,61039,1700026581,348688896,gx5_link,0.6374398469924927,0.11952430754899979,0.1222199872136116,0.7512967586517334,0.01,0.0,0.0,0.0,0.01,0.0,0.0,0.0,0.01,-0.008020984940230846,0.015233960933983326,-0.014370416291058064,0.01,0.0,0.0,0.0,0.01,0.0,0.0,0.0,0.01,0.18815701176822183,-9.827820213800669,-1.6281703800223766,0.01,0.0,0.0,0.0,0.01,0.0,0.0,0.0,0.01
1700026581.368382,61040,1700026581,358695680,gx5_link,0.6373800039291382,0.11959220468997955,0.12225817888975143,0.7513304948806763,0.01,0.0,0.0,0.0,0.01,0.0,0.0,0.0,0.01,-0.011492565274238586,0.006374223157763481,-0.0090345973148942,0.01,0.0,0.0,0.0,0.01,0.0,0.0,0.0,0.01,0.20371307548154144,-9.800161222502588,-1.6111260139800607,0.01,0.0,0.0,0.0,0.01,0.0,0.0,0.0,0.01
1700026581.379705,61041,1700026581,368703488,gx5_link,0.6373060941696167,0.11960205435752869,0.12227781116962433,0.7513883709907532,0.01,0.0,0.0,0.0,0.01,0.0,0.0,0.0,0.01,-0.014981950633227825,-0.005278038792312145,-0.005662277806550264,0.01,0.0,0.0,0.0,0.01,0.0,0.0,0.0,0.01,0.1791701886436902,-9.79407634963095,-1.6364970404714345,0.01,0.0,0.0,0.0,0.01,0.0,0.0,0.0,0.01
1700026581.3895528,61042,1700026581,378713344,gx5_link,0.6372201442718506,0.11958510428667068,0.12229375541210175,0.7514613270759583,0.01,0.0,0.0,0.0,0.01,0.0,0.0,0.0,0.01,-0.02261877991259098,-0.009812948293983936,-0.00368310185149312,0.01,0.0,0.0,0.0,0.01,0.0,0.0,0.0,0.01,0.15235245220903307,-9.78147113507986,-1.5292923649020491,0.01,0.0,0.0,0.0,0.01,0.0,0.0,0.0,0.01
1700026581.4031153,61043,1700026581,389724416,gx5_link,0.6371396780014038,0.11962177604436874,0.12236539274454117,0.7515121698379517,0.01,0.0,0.0,0.0,0.01,0.0,0.0,0.0,0.01,-0.02556428872048855,0.002411534544080496,-0.002006765455007553,0.01,0.0,0.0,0.0,0.01,0.0,0.0,0.0,0.01,0.1536234037266113,-9.747352592378855,-1.4155861984841525,0.01,0.0,0.0,0.0,0.01,0.0,0.0,0.0,0.01
1700026581.4122047,61044,1700026581,400730624,gx5_link,0.6370396018028259,0.11972473561763763,0.12249497324228287,0.7515594363212585,0.01,0.0,0.0,0.0,0.01,0.0,0.0,0.0,0.01,-0.022492267191410065,0.018996715545654297,-0.002043342450633645,0.01,0.0,0.0,0.0,0.01,0.0,0.0,0.0,0.01,0.14841231801481916,-9.710455817136168,-1.5018291884370147,0.01,0.0,0.0,0.0,0.01,0.0,0.0,0.0,0.01
1700026581.421679,61045,1700026581,410737920,gx5_link,0.6369632482528687,0.11983852088451385,0.12264691293239594,0.7515813112258911,0.01,0.0,0.0,0.0,0.01,0.0,0.0,0.0,0.01,-0.016672903671860695,0.025474758818745613,0.0011651355307549238,0.01,0.0,0.0,0.0,0.01,0.0,0.0,0.0,0.01,0.16414160113688558,-9.703540923181176,-1.5379158163405955,0.01,0.0,0.0,0.0,0.01,0.0,0.0,0.0,0.01
1700026581.4322608,61046,1700026581,420747520,gx5_link,0.6368892192840576,0.11996207386255264,0.12280449271202087,0.751598596572876,0.01,0.0,0.0,0.0,0.01,0.0,0.0,0.0,0.01,-0.014137078076601028,0.02876274287700653,0.003348845522850752,0.01,0.0,0.0,0.0,0.01,0.0,0.0,0.0,0.01,0.19236113066086544,-9.682274263268708,-1.5884271293073893,0.01,0.0,0.0,0.0,0.01,0.0,0.0,0.0,0.01
1700026581.4443138,61047,1700026581,430754304,gx5_link,0.6367982625961304,0.12006842344999313,0.12293500453233719,0.75163733959198,0.01,0.0,0.0,0.0,0.01,0.0,0.0,0.0,0.01,-0.014545337297022343,0.02467457950115204,0.00029872707091271877,0.01,0.0,0.0,0.0,0.01,0.0,0.0,0.0,0.01,0.20951200755126773,-9.660586747595667,-1.6738862754061816,0.01,0.0,0.0,0.0,0.01,0.0,0.0,0.0,0.01
1700026581.449437,61048,1700026581,440762112,gx5_link,0.636704683303833,0.12016578018665314,0.12301094830036163,0.751688539981842,0.01,0.0,0.0,0.0,0.01,0.0,0.0,0.0,0.01,-0.01647200435400009,0.017903707921504974,-0.005444725509732962,0.01,0.0,0.0,0.0,0.01,0.0,0.0,0.0,0.01,0.21514360196376217,-9.6648128408581,-1.6761492519021033,0.01,0.0,0.0,0.0,0.01,0.0,0.0,0.0,0.01
1700026581.4619632,61049,1700026581,450772224,gx5_link,0.6365954875946045,0.12028302252292633,0.1230866089463234,0.7517498731613159,0.01,0.0,0.0,0.0,0.01,0.0,0.0,0.0,0.01,-0.020238352939486504,0.01965361461043358,-0.008415881544351578,0.01,0.0,0.0,0.0,0.01,0.0,0.0,0.0,0.01,0.23019706818349658,-9.652464231416582,-1.6094214020192623,0.01,0.0,0.0,0.0,0.01,0.0,0.0,0.0,0.01
1700026581.4686208,61050,1700026581,460778240,gx5_link,0.6364868879318237,0.12041410058736801,0.12319305539131165,0.7518033981323242,0.01,0.0,0.0,0.0,0.01,0.0,0.0,0.0,0.01,-0.019685423001646996,0.0239857267588377,-0.005327564664185047,0.01,0.0,0.0,0.0,0.01,0.0,0.0,0.0,0.01,0.2311571453873068,-9.651130936986208,-1.6430337487637996,0.01,0.0,0.0,0.0,0.01,0.0,0.0,0.0,0.01
1700026581.4793541,61051,1700026581,470785792,gx5_link,0.6364019513130188,0.1205277219414711,0.1233331635594368,0.7518342137336731,0.01,0.0,0.0,0.0,0.01,0.0,0.0,0.0,0.01,-0.015152518637478352,0.026152199134230614,0.0010657518869265914,0.01,0.0,0.0,0.0,0.01,0.0,0.0,0.0,0.01,0.22113032995685933,-9.680711251735687,-1.65043248071298,0.01,0.0,0.0,0.0,0.01,0.0,0.0,0.0,0.01
1700026581.5083742,61052,1700026581,480801536,gx5_link,0.6363405585289001,0.12063761055469513,0.12351396679878235,0.7518388032913208,0.01,0.0,0.0,0.0,0.01,0.0,0.0,0.0,0.01,-0.011173618026077747,0.030410809442400932,0.009333465248346329,0.01,0.0,0.0,0.0,0.01,0.0,0.0,0.0,0.01,0.24378055318221448,-9.672076694381236,-1.614467725623399,0.01,0.0,0.0,0.0,0.01,0.0,0.0,0.0,0.01
1700026581.508509,61053,1700026581,490808320,gx5_link,0.6362901926040649,0.1207481399178505,0.12370376288890839,0.7518325448036194,0.01,0.0,0.0,0.0,0.01,0.0,0.0,0.0,0.01,-0.006025929003953934,0.03230712562799454,0.01259371917694807,0.01,0.0,0.0,0.0,0.01,0.0,0.0,0.0,0.01,0.27068353848122056,-9.654611180317401,-1.6611081885062158,0.01,0.0,0.0,0.0,0.01,0.0,0.0,0.0,0.01
1700026581.5099707,61054,1700026581,500815872,gx5_link,0.6362398266792297,0.12083745747804642,0.12386691570281982,0.7518338561058044,0.01,0.0,0.0,0.0,0.01,0.0,0.0,0.0,0.01,-0.006637292914092541,0.028060536831617355,0.011370450258255005,0.01,0.0,0.0,0.0,0.01,0.0,0.0,0.0,0.01,0.2858970358345657,-9.666099373537302,-1.6932761816613375,0.01,0.0,0.0,0.0,0.01,0.0,0.0,0.0,0.01
1700026581.5216453,61055,1700026581,510825216,gx5_link,0.6361799240112305,0.1209086999297142,0.12399885803461075,0.7518513202667236,0.01,0.0,0.0,0.0,0.01,0.0,0.0,0.0,0.01,-0.00921090878546238,0.02223302237689495,0.010448421351611614,0.01,0.0,0.0,0.0,0.01,0.0,0.0,0.0,0.01,0.3057917498067021,-9.652221654832363,-1.6736225099034607,0.01,0.0,0.0,0.0,0.01,0.0,0.0,0.0,0.01
1700026581.5300536,61056,1700026581,520832000,gx5_link,0.6360961198806763,0.12097422778606415,0.12407001107931137,0.7518999576568604,0.01,0.0,0.0,0.0,0.01,0.0,0.0,0.0,0.01,-0.012782318517565727,0.012946994975209236,0.0015996125293895602,0.01,0.0,0.0,0.0,0.01,0.0,0.0,0.0,0.01,0.32375063687805083,-9.59899801416695,-1.7289477990232407,0.01,0.0,0.0,0.0,0.01,0.0,0.0,0.0,0.01
1700026581.539106,61057,1700026581,530838784,gx5_link,0.6360167264938354,0.12101617455482483,0.12408234924077988,0.751958429813385,0.01,0.0,0.0,0.0,0.01,0.0,0.0,0.0,0.01,-0.012277878820896149,0.0016913420986384153,-0.004426868166774511,0.01,0.0,0.0,0.0,0.01,0.0,0.0,0.0,0.01,0.3168834910549223,-9.579064064162969,-1.7586590466760097,0.01,0.0,0.0,0.0,0.01,0.0,0.0,0.0,0.01
