Time,header.seq,header.stamp.secs,header.stamp.nsecs,header.frame_id,orientation.x,orientation.y,orientation.z,orientation.w,orientation_covariance_0,orientation_covariance_1,orientation_covariance_2,orientation_covariance_3,orientation_covariance_4,orientation_covariance_5,orientation_covariance_6,orientation_covariance_7,orientation_covariance_8,angular_velocity.x,angular_velocity.y,angular_velocity.z,angular_velocity_covariance_0,angular_velocity_covariance_1,angular_velocity_covariance_2,angular_velocity_covariance_3,angular_velocity_covariance_4,angular_velocity_covariance_5,angular_velocity_covariance_6,angular_velocity_covariance_7,angular_velocity_covariance_8,linear_acceleration.x,linear_acceleration.y,linear_acceleration.z,linear_acceleration_covariance_0,linear_acceleration_covariance_1,linear_acceleration_covariance_2,linear_acceleration_covariance_3,linear_acceleration_covariance_4,linear_acceleration_covariance_5,linear_acceleration_covariance_6,linear_acceleration_covariance_7,linear_acceleration_covariance_8
1700026234.5974052,26507,1700026234,510710272,gx5_link,0.6794705986976624,0.10915812849998474,0.15794730186462402,0.7081362009048462,0.01,0.0,0.0,0.0,0.01,0.0,0.0,0.0,0.01,-0.01717347279191017,-0.011547035537660122,0.013156658038496971,0.01,0.0,0.0,0.0,0.01,0.0,0.0,0.0,0.01,-0.5495690515859052,-9.932782809531687,-0.47787009875960645,0.01,0.0,0.0,0.0,0.01,0.0,0.0,0.0,0.01
1700026234.5975466,26508,1700026234,520726528,gx5_link,0.6794347167015076,0.10902703553438187,0.15795134007930756,0.7081900238990784,0.01,0.0,0.0,0.0,0.01,0.0,0.0,0.0,0.01,-0.017951268702745438,-0.016003713011741638,0.016795476898550987,0.01,0.0,0.0,0.0,0.01,0.0,0.0,0.0,0.01,-0.5369792537996545,-9.873746098673344,-0.4990513088783249,0.01,0.0,0.0,0.0,0.01,0.0,0.0,0.0,0.01
1700026234.597597,26509,1700026234,530742528,gx5_link,0.6793836355209351,0.10888013243675232,0.15790699422359467,0.7082713842391968,0.01,0.0,0.0,0.0,0.01,0.0,0.0,0.0,0.01,-0.020676391199231148,-0.02250557206571102,0.011695637367665768,0.01,0.0,0.0,0.0,0.01,0.0,0.0,0.0,0.01,-0.5308441485781222,-9.824206699478626,-0.5262486374814063,0.01,0.0,0.0,0.0,0.01,0.0,0.0,0.0,0.01
1700026234.5976975,26510,1700026234,540766464,gx5_link,0.6793085932731628,0.10872220993041992,0.1578267216682434,0.7083855271339417,0.01,0.0,0.0,0.0,0.01,0.0,0.0,0.0,0.01,-0.026385419070720673,-0.028384435921907425,0.006700517609715462,0.01,0.0,0.0,0.0,0.01,0.0,0.0,0.0,0.01,-0.5497649394841865,-9.834617034333943,-0.5687751257067546,0.01,0.0,0.0,0.0,0.01,0.0,0.0,0.0,0.01
1700026234.5978189,26511,1700026234,550781440,gx5_link,0.6792264580726624,0.10854385793209076,0.15772999823093414,0.7085132598876953,0.01,0.0,0.0,0.0,0.01,0.0,0.0,0.0,0.01,-0.030204879119992256,-0.03358907252550125,0.005344058386981487,0.01,0.0,0.0,0.0,0.01,0.0,0.0,0.0,0.01,-0.5790731227613986,-9.808490074908732,-0.5514804016325623,0.01,0.0,0.0,0.0,0.01,0.0,0.0,0.0,0.01
1700026234.597894,26512,1700026234,560797696,gx5_link,0.6791481375694275,0.10838065296411514,0.15764255821704865,0.7086326479911804,0.01,0.0,0.0,0.0,0.01,0.0,0.0,0.0,0.01,-0.030230741947889328,-0.03240334987640381,0.004337025806307793,0.01,0.0,0.0,0.0,0.01,0.0,0.0,0.0,0.01,-0.6145587160319089,-9.7698163531214,-0.543403806954436,0.01,0.0,0.0,0.0,0.01,0.0,0.0,0.0,0.01
1700026234.5979707,26513,1700026234,570815744,gx5_link,0.6790787577629089,0.10822944343090057,0.15759716928005219,0.7087324857711792,0.01,0.0,0.0,0.0,0.01,0.0,0.0,0.0,0.01,-0.028088722378015518,-0.026545923203229904,0.00806206464767456,0.01,0.0,0.0,0.0,0.01,0.0,0.0,0.0,0.01,-0.6552937542632222,-9.771440739452839,-0.5181255002478138,0.01,0.0,0.0,0.0,0.01,0.0,0.0,0.0,0.01
1700026234.6001172,26514,1700026234,580829696,gx5_link,0.6790151596069336,0.10807288438081741,0.15759989619255066,0.7088165879249573,0.01,0.0,0.0,0.0,0.01,0.0,0.0,0.0,0.01,-0.025851324200630188,-0.02076691947877407,0.013948226347565651,0.01,0.0,0.0,0.0,0.01,0.0,0.0,0.0,0.01,-0.6786028067234903,-9.732916070747375,-0.5380868131827563,0.01,0.0,0.0,0.0,0.01,0.0,0.0,0.0,0.01
1700026234.6094797,26515,1700026234,590846464,gx5_link,0.6789363622665405,0.10790912806987762,0.15763762593269348,0.70890873670578,0.01,0.0,0.0,0.0,0.01,0.0,0.0,0.0,0.01,-0.028062401339411736,-0.01593788154423237,0.018596479669213295,0.01,0.0,0.0,0.0,0.01,0.0,0.0,0.0,0.01,-0.6856305134031921,-9.684198509329557,-0.5633784177623689,0.01,0.0,0.0,0.0,0.01,0.0,0.0,0.0,0.01
1700026234.6201508,26516,1700026234,600864256,gx5_link,0.6788524389266968,0.10778229683637619,0.15771576762199402,0.7089908719062805,0.01,0.0,0.0,0.0,0.01,0.0,0.0,0.0,0.01,-0.027317602187395096,-0.005994346924126148,0.022007478401064873,0.01,0.0,0.0,0.0,0.01,0.0,0.0,0.0,0.01,-0.6484226994499563,-9.647106503775715,-0.5424318931823596,0.01,0.0,0.0,0.0,0.01,0.0,0.0,0.0,0.01
1700026234.6287713,26517,1700026234,610877952,gx5_link,0.6787809729576111,0.10765501856803894,0.15784737467765808,0.7090493440628052,0.01,0.0,0.0,0.0,0.01,0.0,0.0,0.0,0.01,-0.023753711953759193,0.0019980769138783216,0.030795322731137276,0.01,0.0,0.0,0.0,0.01,0.0,0.0,0.0,0.01,-0.6147717742606997,-9.624011459392309,-0.586721080231294,0.01,0.0,0.0,0.0,0.01,0.0,0.0,0.0,0.01
1700026234.6389554,26518,1700026234,620893440,gx5_link,0.6787389516830444,0.10747262090444565,0.15802758932113647,0.7090771198272705,0.01,0.0,0.0,0.0,0.01,0.0,0.0,0.0,0.01,-0.01367406640201807,0.00378885748796165,0.04666449502110481,0.01,0.0,0.0,0.0,0.01,0.0,0.0,0.0,0.01,-0.5977463321145624,-9.618929626083373,-0.6689543961513787,0.01,0.0,0.0,0.0,0.01,0.0,0.0,0.0,0.01
1700026234.65575,26519,1700026234,630917120,gx5_link,0.6787506341934204,0.10725344717502594,0.15825624763965607,0.7090482115745544,0.01,0.0,0.0,0.0,0.01,0.0,0.0,0.0,0.01,-0.001303737866692245,0.003959242720156908,0.06140497699379921,0.01,0.0,0.0,0.0,0.01,0.0,0.0,0.0,0.01,-0.5956683202641084,-9.595273440685867,-0.7074220739725977,0.01,0.0,0.0,0.0,0.01,0.0,0.0,0.0,0.01
1700026234.6588624,26520,1700026234,640931328,gx5_link,0.6788082718849182,0.10702108591794968,0.15849736332893372,0.7089741826057434,0.01,0.0,0.0,0.0,0.01,0.0,0.0,0.0,0.01,0.009106882847845554,0.0029595002997666597,0.06678768992424011,0.01,0.0,0.0,0.0,0.01,0.0,0.0,0.0,0.01,-0.5951872222162783,-9.493734389662743,-0.6826870072972029,0.01,0.0,0.0,0.0,0.01,0.0,0.0,0.0,0.01
1700026234.679773,26521,1700026234,650948352,gx5_link,0.6788747310638428,0.10682597011327744,0.1586846262216568,0.7088980674743652,0.01,0.0,0.0,0.0,0.01,0.0,0.0,0.0,0.01,0.012348601594567299,-7.430277764797211e-05,0.05725177004933357,0.01,0.0,0.0,0.0,0.01,0.0,0.0,0.0,0.01,-0.6214869078598916,-9.46479529542625,-0.6355684785738587,0.01,0.0,0.0,0.0,0.01,0.0,0.0,0.0,0.01
1700026234.6848962,26522,1700026234,661965312,gx5_link,0.678941011428833,0.1066625788807869,0.15882079303264618,0.7088286876678467,0.01,0.0,0.0,0.0,0.01,0.0,0.0,0.0,0.01,0.014739558100700378,-0.001953925471752882,0.04647865146398544,0.01,0.0,0.0,0.0,0.01,0.0,0.0,0.0,0.01,-0.6302778978850692,-9.491915942063928,-0.6373440368790179,0.01,0.0,0.0,0.0,0.01,0.0,0.0,0.0,0.01
1700026234.6948493,26523,1700026234,672983040,gx5_link,0.6790065169334412,0.10651279985904694,0.1589311808347702,0.7087637782096863,0.01,0.0,0.0,0.0,0.01,0.0,0.0,0.0,0.01,0.015078330412507057,-0.0034237608779221773,0.040519677102565765,0.01,0.0,0.0,0.0,0.01,0.0,0.0,0.0,0.01,-0.6238633546676486,-9.52147287593782,-0.6417960478518158,0.01,0.0,0.0,0.0,0.01,0.0,0.0,0.0,0.01
1700026234.7010236,26524,1700026234,682997248,gx5_link,0.6790745258331299,0.10637035220861435,0.15899823606014252,0.7087050676345825,0.01,0.0,0.0,0.0,0.01,0.0,0.0,0.0,0.01,0.017352145165205002,-0.007179669104516506,0.03289887681603432,0.01,0.0,0.0,0.0,0.01,0.0,0.0,0.0,0.01,-0.6150953801918775,-9.531389874318242,-0.6551232200019061,0.01,0.0,0.0,0.0,0.01,0.0,0.0,0.0,0.01
1700026234.7111897,26525,1700026234,693013248,gx5_link,0.6791920065879822,0.10620710998773575,0.15903012454509735,0.7086098194122314,0.01,0.0,0.0,0.0,0.01,0.0,0.0,0.0,0.01,0.0276868287473917,-0.014978371560573578,0.03309604898095131,0.01,0.0,0.0,0.0,0.01,0.0,0.0,0.0,0.01,-0.6227305512454361,-9.559006195518373,-0.6589912936069071,0.01,0.0,0.0,0.0,0.01,0.0,0.0,0.0,0.01
1700026234.7218878,26526,1700026234,703031040,gx5_link,0.6793506145477295,0.1060427576303482,0.1590401977300644,0.7084800004959106,0.01,0.0,0.0,0.0,0.01,0.0,0.0,0.0,0.01,0.03777078166604042,-0.020439863204956055,0.03234917297959328,0.01,0.0,0.0,0.0,0.01,0.0,0.0,0.0,0.01,-0.6249814719773829,-9.588903905653954,-0.6581588613707572,0.01,0.0,0.0,0.0,0.01,0.0,0.0,0.0,0.01
1700026234.7297187,26527,1700026234,713044736,gx5_link,0.6795575618743896,0.10588378459215164,0.15902695059776306,0.7083082795143127,0.01,0.0,0.0,0.0,0.01,0.0,0.0,0.0,0.01,0.04906758666038513,-0.023815136402845383,0.029628701508045197,0.01,0.0,0.0,0.0,0.01,0.0,0.0,0.0,0.01,-0.6392183063182979,-9.623573067975043,-0.6397326855812221,0.01,0.0,0.0,0.0,0.01,0.0,0.0,0.0,0.01
1700026234.745532,26528,1700026234,723066112,gx5_link,0.6797744631767273,0.10573654621839523,0.15900245308876038,0.7081276178359985,0.01,0.0,0.0,0.0,0.01,0.0,0.0,0.0,0.01,0.05306452512741089,-0.024484548717737198,0.02663896419107914,0.01,0.0,0.0,0.0,0.01,0.0,0.0,0.0,0.01,-0.6678693043284117,-9.681990770152211,-0.5995317907592281,0.01,0.0,0.0,0.0,0.01,0.0,0.0,0.0,0.01
1700026234.752391,26529,1700026234,733084160,gx5_link,0.6799848675727844,0.10562602430582047,0.15897947549819946,0.707947313785553,0.01,0.0,0.0,0.0,0.01,0.0,0.0,0.0,0.01,0.05135934054851532,-0.01934484764933586,0.021685397252440453,0.01,0.0,0.0,0.0,0.01,0.0,0.0,0.0,0.01,-0.6739746354661882,-9.714222476193308,-0.5362376051194966,0.01,0.0,0.0,0.0,0.01,0.0,0.0,0.0,0.01
1700026234.759757,26530,1700026234,743097856,gx5_link,0.6801998615264893,0.10557874292135239,0.15896417200565338,0.7077511548995972,0.01,0.0,0.0,0.0,0.01,0.0,0.0,0.0,0.01,0.05493783950805664,-0.010367456823587418,0.015697738155722618,0.01,0.0,0.0,0.0,0.01,0.0,0.0,0.0,0.01,-0.6776830615300685,-9.74685516425073,-0.5250482487156987,0.01,0.0,0.0,0.0,0.01,0.0,0.0,0.0,0.01
1700026234.778582,26531,1700026234,753114112,gx5_link,0.6804028153419495,0.10554363578557968,0.15895117819309235,0.7075642943382263,0.01,0.0,0.0,0.0,0.01,0.0,0.0,0.0,0.01,0.05479816719889641,-0.007766013033688068,0.01125623844563961,0.01,0.0,0.0,0.0,0.01,0.0,0.0,0.0,0.01,-0.6965412720613181,-9.811439572364092,-0.5453120882611722,0.01,0.0,0.0,0.0,0.01,0.0,0.0,0.0,0.01
1700026234.781466,26532,1700026234,763131136,gx5_link,0.6805991530418396,0.10553495585918427,0.15892761945724487,0.7073820233345032,0.01,0.0,0.0,0.0,0.01,0.0,0.0,0.0,0.01,0.052447494119405746,-0.004918321501463652,0.006270410493016243,0.01,0.0,0.0,0.0,0.01,0.0,0.0,0.0,0.01,-0.7064301403257995,-9.844903450548648,-0.5022774678505957,0.01,0.0,0.0,0.0,0.01,0.0,0.0,0.0,0.01
1700026234.7898357,26533,1700026234,773145344,gx5_link,0.6807846426963806,0.10558584332466125,0.15887966752052307,0.7072066068649292,0.01,0.0,0.0,0.0,0.01,0.0,0.0,0.0,0.01,0.050062574446201324,-0.001068095676600933,-0.004922793246805668,0.01,0.0,0.0,0.0,0.01,0.0,0.0,0.0,0.01,-0.7050608247339725,-9.854529357028007,-0.445362936777994,0.01,0.0,0.0,0.0,0.01,0.0,0.0,0.0,0.01
1700026234.8026717,26534,1700026234,783162624,gx5_link,0.6809222102165222,0.10570703446865082,0.15878956019878387,0.707076370716095,0.01,0.0,0.0,0.0,0.01,0.0,0.0,0.0,0.01,0.041483696550130844,0.0029219225980341434,-0.022731859236955643,0.01,0.0,0.0,0.0,0.01,0.0,0.0,0.0,0.01,-0.7123558040477335,-9.896376448154449,-0.4571201927302405,0.01,0.0,0.0,0.0,0.01,0.0,0.0,0.0,0.01
1700026234.8116884,26535,1700026234,793179904,gx5_link,0.6809924244880676,0.10585653781890869,0.15864543616771698,0.7070186138153076,0.01,0.0,0.0,0.0,0.01,0.0,0.0,0.0,0.01,0.027888616546988487,0.001823705155402422,-0.036627769470214844,0.01,0.0,0.0,0.0,0.01,0.0,0.0,0.0,0.01,-0.7114325517229736,-9.96580946534276,-0.49251123958509413,0.01,0.0,0.0,0.0,0.01,0.0,0.0,0.0,0.01
1700026234.8236482,26536,1700026234,803194624,gx5_link,0.681016743183136,0.10598333179950714,0.15845224261283875,0.7070196270942688,0.01,0.0,0.0,0.0,0.01,0.0,0.0,0.0,0.01,0.015059137716889381,-0.00585500244051218,-0.041995301842689514,0.01,0.0,0.0,0.0,0.01,0.0,0.0,0.0,0.01,-0.687426383844018,-10.02944168729782,-0.5626511629337445,0.01,0.0,0.0,0.0,0.01,0.0,0.0,0.0,0.01
1700026234.8354058,26537,1700026234,813215744,gx5_link,0.6809983253479004,0.10603804886341095,0.15824377536773682,0.7070757746696472,0.01,0.0,0.0,0.0,0.01,0.0,0.0,0.0,0.01,0.003047618083655834,-0.016325268894433975,-0.03907698392868042,0.01,0.0,0.0,0.0,0.01,0.0,0.0,0.0,0.01,-0.6907484409388155,-10.050829343241453,-0.6340064168889075,0.01,0.0,0.0,0.0,0.01,0.0,0.0,0.0,0.01
1700026234.84213,26538,1700026234,823233280,gx5_link,0.6809557676315308,0.10604876279830933,0.15799613296985626,0.7071704864501953,0.01,0.0,0.0,0.0,0.01,0.0,0.0,0.0,0.01,-0.006394264288246632,-0.025795763358473778,-0.04270162433385849,0.01,0.0,0.0,0.0,0.01,0.0,0.0,0.0,0.01,-0.700112627742067,-9.983064551526308,-0.6330179173082113,0.01,0.0,0.0,0.0,0.01,0.0,0.0,0.0,0.01
1700026234.8515582,26539,1700026234,833246976,gx5_link,0.6808905005455017,0.10608560591936111,0.157710462808609,0.7072916030883789,0.01,0.0,0.0,0.0,0.01,0.0,0.0,0.0,0.01,-0.015519578009843826,-0.03024386055767536,-0.05082711949944496,0.01,0.0,0.0,0.0,0.01,0.0,0.0,0.0,0.01,-0.7052130926862359,-9.915250659972429,-0.5427059243507683,0.01,0.0,0.0,0.0,0.01,0.0,0.0,0.0,0.01
1700026234.8615177,26540,1700026234,843262464,gx5_link,0.680810272693634,0.1061992421746254,0.1574236899614334,0.7074156403541565,0.01,0.0,0.0,0.0,0.01,0.0,0.0,0.0,0.01,-0.019392414018511772,-0.02280520275235176,-0.0627247542142868,0.01,0.0,0.0,0.0,0.01,0.0,0.0,0.0,0.01,-0.7153367926198989,-9.898381358236074,-0.4694911236014217,0.01,0.0,0.0,0.0,0.01,0.0,0.0,0.0,0.01
1700026234.8732271,26541,1700026234,853278976,gx5_link,0.6807045936584473,0.10638009756803513,0.15717794001102448,0.7075448036193848,0.01,0.0,0.0,0.0,0.01,0.0,0.0,0.0,0.01,-0.022935107350349426,-0.008508612401783466,-0.06706827133893967,0.01,0.0,0.0,0.0,0.01,0.0,0.0,0.0,0.01,-0.7185100888937711,-9.950879607236384,-0.4402328438805416,0.01,0.0,0.0,0.0,0.01,0.0,0.0,0.0,0.01
1700026234.8815217,26542,1700026234,863292928,gx5_link,0.6805776953697205,0.10661601275205612,0.15701520442962646,0.7076674699783325,0.01,0.0,0.0,0.0,0.01,0.0,0.0,0.0,0.01,-0.027621204033493996,0.009987544268369675,-0.06378983706235886,0.01,0.0,0.0,0.0,0.01,0.0,0.0,0.0,0.01,-0.6976087551623582,-10.003176780706644,-0.4138450050294399,0.01,0.0,0.0,0.0,0.01,0.0,0.0,0.0,0.01
1700026234.8914948,26543,1700026234,873308416,gx5_link,0.68044114112854,0.10687041282653809,0.15696753561496735,0.7077710032463074,0.01,0.0,0.0,0.0,0.01,0.0,0.0,0.0,0.01,-0.027822421863675117,0.029541291296482086,-0.04894087091088295,0.01,0.0,0.0,0.0,0.01,0.0,0.0,0.0,0.01,-0.6375627211309969,-9.997932450312376,-0.37897231949288396,0.01,0.0,0.0,0.0,0.01,0.0,0.0,0.0,0.01
1700026234.9028745,26544,1700026234,883326720,gx5_link,0.6803186535835266,0.10710619390010834,0.157032310962677,0.7078387141227722,0.01,0.0,0.0,0.0,0.01,0.0,0.0,0.0,0.01,-0.023624712601304054,0.04247168451547623,-0.0274470467120409,0.01,0.0,0.0,0.0,0.01,0.0,0.0,0.0,0.01,-0.5703026275349781,-9.97616017896533,-0.4305333241757005,0.01,0.0,0.0,0.0,0.01,0.0,0.0,0.0,0.01
1700026234.9154115,26545,1700026234,893340928,gx5_link,0.6801902651786804,0.10726720839738846,0.15717820823192596,0.7079053521156311,0.01,0.0,0.0,0.0,0.01,0.0,0.0,0.0,0.01,-0.02432120591402054,0.045220308005809784,-0.006603226996958256,0.01,0.0,0.0,0.0,0.01,0.0,0.0,0.0,0.01,-0.514517429285869,-9.914162280213832,-0.5352364652529359,0.01,0.0,0.0,0.0,0.01,0.0,0.0,0.0,0.01
1700026234.9252658,26546,1700026234,903361792,gx5_link,0.6800613403320312,0.10733116418123245,0.15732358396053314,0.7079873085021973,0.01,0.0,0.0,0.0,0.01,0.0,0.0,0.0,0.01,-0.027837760746479034,0.03498595952987671,0.008302435278892517,0.01,0.0,0.0,0.0,0.01,0.0,0.0,0.0,0.01,-0.4619343515463173,-9.8041505843997,-0.5763846873950212,0.01,0.0,0.0,0.0,0.01,0.0,0.0,0.0,0.01
1700026234.931769,26547,1700026234,913379328,gx5_link,0.6799477338790894,0.10731212049722672,0.15743127465248108,0.708075225353241,0.01,0.0,0.0,0.0,0.01,0.0,0.0,0.0,0.01,-0.02877819910645485,0.018093371763825417,0.01729569211602211,0.01,0.0,0.0,0.0,0.01,0.0,0.0,0.0,0.01,-0.4243027957556769,-9.716340198999642,-0.5532490187402814,0.01,0.0,0.0,0.0,0.01,0.0,0.0,0.0,0.01
1700026234.9415216,26548,1700026234,923392512,gx5_link,0.6798586845397949,0.10721883922815323,0.15748324990272522,0.7081633806228638,0.01,0.0,0.0,0.0,0.01,0.0,0.0,0.0,0.01,-0.026661748066544533,-0.0006563679780811071,0.020874032750725746,0.01,0.0,0.0,0.0,0.01,0.0,0.0,0.0,0.01,-0.41978586632050574,-9.697682844802737,-0.5480153558705002,0.01,0.0,0.0,0.0,0.01,0.0,0.0,0.0,0.01
1700026234.951757,26549,1700026234,933408256,gx5_link,0.6797968149185181,0.1070304661989212,0.15751007199287415,0.7082452774047852,0.01,0.0,0.0,0.0,0.01,0.0,0.0,0.0,0.01,-0.025755880400538445,-0.01891983672976494,0.028853395953774452,0.01,0.0,0.0,0.0,0.01,0.0,0.0,0.0,0.01,-0.4532628962475806,-9.730599610498547,-0.5493719581112265,0.01,0.0,0.0,0.0,0.01,0.0,0.0,0.0,0.01
1700026234.9622867,26550,1700026234,943425536,gx5_link,0.6797364354133606,0.10674647241830826,0.15751372277736664,0.708345353603363,0.01,0.0,0.0,0.0,0.01,0.0,0.0,0.0,0.01,-0.02994176186621189,-0.03570176661014557,0.03666422516107559,0.01,0.0,0.0,0.0,0.01,0.0,0.0,0.0,0.01,-0.5054064500587061,-9.708024206075072,-0.5476113416468724,0.01,0.0,0.0,0.0,0.01,0.0,0.0,0.0,0.01
1700026234.9714947,26551,1700026234,953438720,gx5_link,0.6796883344650269,0.10639746487140656,0.15748408436775208,0.7084506154060364,0.01,0.0,0.0,0.0,0.01,0.0,0.0,0.0,0.01,-0.031057186424732208,-0.0502285473048687,0.03983075171709061,0.01,0.0,0.0,0.0,0.01,0.0,0.0,0.0,0.01,-0.5654170474505051,-9.66787281295061,-0.53557614553608,0.01,0.0,0.0,0.0,0.01,0.0,0.0,0.0,0.01
1700026234.9825518,26552,1700026234,963453952,gx5_link,0.6796480417251587,0.1060076355934143,0.15745142102241516,0.7085548639297485,0.01,0.0,0.0,0.0,0.01,0.0,0.0,0.0,0.01,-0.030987098813056946,-0.05813217908143997,0.041928138583898544,0.01,0.0,0.0,0.0,0.01,0.0,0.0,0.0,0.01,-0.6449117687195539,-9.639025488650798,-0.5089954509939998,0.01,0.0,0.0,0.0,0.01,0.0,0.0,0.0,0.01
1700026234.991552,26553,1700026234,973470464,gx5_link,0.6796510219573975,0.10563208162784576,0.15741439163684845,0.708616316318512,0.01,0.0,0.0,0.0,0.01,0.0,0.0,0.0,0.01,-0.022205419838428497,-0.05944235250353813,0.039004478603601456,0.01,0.0,0.0,0.0,0.01,0.0,0.0,0.0,0.01,-0.7219963235743343,-9.587563596960901,-0.44425081081762907,0.01,0.0,0.0,0.0,0.01,0.0,0.0,0.0,0.01
1700026235.0072048,26554,1700026234,983484416,gx5_link,0.6796812415122986,0.10532175004482269,0.15736721456050873,0.7086440920829773,0.01,0.0,0.0,0.0,0.01,0.0,0.0,0.0,0.01,-0.012765937484800816,-0.05325508117675781,0.029383547604084015,0.01,0.0,0.0,0.0,0.01,0.0,0.0,0.0,0.01,-0.7821348581947386,-9.556748187458515,-0.40733763242941345,0.01,0.0,0.0,0.0,0.01,0.0,0.0,0.0,0.01
1700026235.0151906,26555,1700026234,993504768,gx5_link,0.6797181963920593,0.10512175410985947,0.15732188522815704,0.7086483836174011,0.01,0.0,0.0,0.0,0.01,0.0,0.0,0.0,0.01,-0.005830242298543453,-0.038507889956235886,0.016499966382980347,0.01,0.0,0.0,0.0,0.01,0.0,0.0,0.0,0.01,-0.8326895719118416,-9.598315877121687,-0.42402313856407997,0.01,0.0,0.0,0.0,0.01,0.0,0.0,0.0,0.01
1700026235.0216436,26556,1700026235,3521792,gx5_link,0.6797227263450623,0.105013407766819,0.15730291604995728,0.7086642384529114,0.01,0.0,0.0,0.0,0.01,0.0,0.0,0.0,0.01,-0.006063633598387241,-0.021669600158929825,0.0051388065330684185,0.01,0.0,0.0,0.0,0.01,0.0,0.0,0.0,0.01,-0.8630046306766569,-9.672837741881608,-0.48770760216303166,0.01,0.0,0.0,0.0,0.01,0.0,0.0,0.0,0.01
1700026235.0315378,26557,1700026235,13536000,gx5_link,0.6797090768814087,0.10498186945915222,0.15730693936347961,0.7086811065673828,0.01,0.0,0.0,0.0,0.01,0.0,0.0,0.0,0.01,-0.004860729444772005,-0.005667500663548708,-0.0021229302510619164,0.01,0.0,0.0,0.0,0.01,0.0,0.0,0.0,0.01,-0.853610487126559,-9.709866034549474,-0.5251780125752091,0.01,0.0,0.0,0.0,0.01,0.0,0.0,0.0,0.01
1700026235.044505,26558,1700026235,23552000,gx5_link,0.6796831488609314,0.10502099245786667,0.15734981000423431,0.7086906433105469,0.01,0.0,0.0,0.0,0.01,0.0,0.0,0.0,0.01,-0.00207078387029469,0.009896589443087578,-0.0052763232961297035,0.01,0.0,0.0,0.0,0.01,0.0,0.0,0.0,0.01,-0.8200653603993355,-9.702178402656315,-0.6100458051847294,0.01,0.0,0.0,0.0,0.01,0.0,0.0,0.0,0.01
1700026235.0548582,26559,1700026235,33569024,gx5_link,0.6796624064445496,0.10510808974504471,0.157402902841568,0.7086858749389648,0.01,0.0,0.0,0.0,0.01,0.0,0.0,0.0,0.01,0.005726548843085766,0.01912168227136135,-0.009880594909191132,0.01,0.0,0.0,0.0,0.01,0.0,0.0,0.0,0.01,-0.7960031514842063,-9.676185298743844,-0.7022363418977707,0.01,0.0,0.0,0.0,0.01,0.0,0.0,0.0,0.01
1700026235.0615468,26560,1700026235,43582208,gx5_link,0.6796591877937317,0.10523758083581924,0.15740594267845154,0.7086690068244934,0.01,0.0,0.0,0.0,0.01,0.0,0.0,0.0,0.01,0.012899065390229225,0.021001217886805534,-0.02102433145046234,0.01,0.0,0.0,0.0,0.01,0.0,0.0,0.0,0.01,-0.7779351414825767,-9.651199326047301,-0.7383391172185539,0.01,0.0,0.0,0.0,0.01,0.0,0.0,0.0,0.01
1700026235.071537,26561,1700026235,53597184,gx5_link,0.6796773672103882,0.1054374948143959,0.15736083686351776,0.7086319327354431,0.01,0.0,0.0,0.0,0.01,0.0,0.0,0.0,0.01,0.01887460984289646,0.023680398240685463,-0.034282151609659195,0.01,0.0,0.0,0.0,0.01,0.0,0.0,0.0,0.01,-0.7587255602303892,-9.670753921344875,-0.6835955735094845,0.01,0.0,0.0,0.0,0.01,0.0,0.0,0.0,0.01
1700026235.0816116,26562,1700026235,63613440,gx5_link,0.6796783804893494,0.10571883618831635,0.15726271271705627,0.7086108922958374,0.01,0.0,0.0,0.0,0.01,0.0,0.0,0.0,0.01,0.01760583370923996,0.02797134406864643,-0.05136871710419655,0.01,0.0,0.0,0.0,0.01,0.0,0.0,0.0,0.01,-0.7261197601798921,-9.708390701299905,-0.6389395624421537,0.01,0.0,0.0,0.0,0.01,0.0,0.0,0.0,0.01
1700026235.0915668,26563,1700026235,73626880,gx5_link,0.6796504855155945,0.10606205463409424,0.157154843211174,0.7086101770401001,0.01,0.0,0.0,0.0,0.01,0.0,0.0,0.0,0.01,0.011987962760031223,0.03488285094499588,-0.062212664633989334,0.01,0.0,0.0,0.0,0.01,0.0,0.0,0.0,0.01,-0.6981171430759131,-9.797097158756852,-0.600018003373593,0.01,0.0,0.0,0.0,0.01,0.0,0.0,0.0,0.01
1700026235.1153722,26564,1700026235,83650304,gx5_link,0.6796038150787354,0.10640143603086472,0.15706519782543182,0.7086240649223328,0.01,0.0,0.0,0.0,0.01,0.0,0.0,0.0,0.01,0.007090660277754068,0.03719566762447357,-0.06080615520477295,0.01,0.0,0.0,0.0,0.01,0.0,0.0,0.0,0.01,-0.6673566055659205,-9.862945303195714,-0.5757907766224816,0.01,0.0,0.0,0.0,0.01,0.0,0.0,0.0,0.01
1700026235.1155107,26565,1700026235,93667072,gx5_link,0.6795340776443481,0.10671360045671463,0.1569991409778595,0.7086586356163025,0.01,0.0,0.0,0.0,0.01,0.0,0.0,0.0,0.01,-0.0006934204720892012,0.037808384746313095,-0.054608650505542755,0.01,0.0,0.0,0.0,0.01,0.0,0.0,0.0,0.01,-0.6195430072505027,-9.874235928016901,-0.5825262223573401,0.01,0.0,0.0,0.0,0.01,0.0,0.0,0.0,0.01
1700026235.12152,26566,1700026235,103681024,gx5_link,0.6794441938400269,0.10699911415576935,0.15696784853935242,0.7087087035179138,0.01,0.0,0.0,0.0,0.01,0.0,0.0,0.0,0.01,-0.008099664933979511,0.038039982318878174,-0.04670068249106407,0.01,0.0,0.0,0.0,0.01,0.0,0.0,0.0,0.01,-0.5737546676849946,-9.830374574458599,-0.5643057617403566,0.01,0.0,0.0,0.0,0.01,0.0,0.0,0.0,0.01
1700026235.1318326,26567,1700026235,113696512,gx5_link,0.6793287396430969,0.10727804899215698,0.15693068504333496,0.7087852954864502,0.01,0.0,0.0,0.0,0.01,0.0,0.0,0.0,0.01,-0.014638897031545639,0.03855407238006592,-0.046225406229496,0.01,0.0,0.0,0.0,0.01,0.0,0.0,0.0,0.01,-0.5280254744281992,-9.771728908744453,-0.5658516760081053,0.01,0.0,0.0,0.0,0.01,0.0,0.0,0.0,0.01
1700026235.1419396,26568,1700026235,123713792,gx5_link,0.6792056560516357,0.10753783583641052,0.1569078117609024,0.7088690400123596,0.01,0.0,0.0,0.0,0.01,0.0,0.0,0.0,0.01,-0.01767551898956299,0.03694868087768555,-0.04067688435316086,0.01,0.0,0.0,0.0,0.01,0.0,0.0,0.0,0.01,-0.4953549751110375,-9.775991826885939,-0.5762450962612405,0.01,0.0,0.0,0.0,0.01,0.0,0.0,0.0,0.01
1700026235.15165,26569,1700026235,133726976,gx5_link,0.6790961027145386,0.10776746273040771,0.15693099796772003,0.70893394947052,0.01,0.0,0.0,0.0,0.01,0.0,0.0,0.0,0.01,-0.014576609246432781,0.03845720738172531,-0.028714507818222046,0.01,0.0,0.0,0.0,0.01,0.0,0.0,0.0,0.01,-0.46534379466362297,-9.802411631777883,-0.6099450482239946,0.01,0.0,0.0,0.0,0.01,0.0,0.0,0.0,0.01
1700026235.1681666,26570,1700026235,143744000,gx5_link,0.6790193319320679,0.10793638229370117,0.15700654685497284,0.7089650630950928,0.01,0.0,0.0,0.0,0.01,0.0,0.0,0.0,0.01,-0.008145825006067753,0.03765434771776199,-0.012364860624074936,0.01,0.0,0.0,0.0,0.01,0.0,0.0,0.0,0.01,-0.44316579205989837,-9.778168001881241,-0.6392575423501432,0.01,0.0,0.0,0.0,0.01,0.0,0.0,0.0,0.01
1700026235.1711447,26571,1700026235,153760000,gx5_link,0.6789828538894653,0.10805071145296097,0.15710222721099854,0.7089613676071167,0.01,0.0,0.0,0.0,0.01,0.0,0.0,0.0,0.01,-0.00040431221714243293,0.03485030308365822,-0.00010000600013881922,0.01,0.0,0.0,0.0,0.01,0.0,0.0,0.0,0.01,-0.42768275705017145,-9.702724346101283,-0.659708282769844,0.01,0.0,0.0,0.0,0.01,0.0,0.0,0.0,0.01
1700026235.1815553,26572,1700026235,163774464,gx5_link,0.6789736747741699,0.10813126713037491,0.1571628898382187,0.70894455909729,0.01,0.0,0.0,0.0,0.01,0.0,0.0,0.0,0.01,0.00647868774831295,0.024841729551553726,0.001679551089182496,0.01,0.0,0.0,0.0,0.01,0.0,0.0,0.0,0.01,-0.4275998280070722,-9.645890113723278,-0.6941274889178574,0.01,0.0,0.0,0.0,0.01,0.0,0.0,0.0,0.01
1700026235.210756,26573,1700026235,173789184,gx5_link,0.6789841055870056,0.10818639397621155,0.15715761482715607,0.7089272141456604,0.01,0.0,0.0,0.0,0.01,0.0,0.0,0.0,0.01,0.011066743172705173,0.010792545974254608,-0.00203994894400239,0.01,0.0,0.0,0.0,0.01,0.0,0.0,0.0,0.01,-0.440602079051733,-9.615362288990616,-0.6872562879741192,0.01,0.0,0.0,0.0,0.01,0.0,0.0,0.0,0.01
1700026235.210863,26574,1700026235,186803200,gx5_link,0.6790409684181213,0.10820446908473969,0.1570812314748764,0.7088869214057922,0.01,0.0,0.0,0.0,0.01,0.0,0.0,0.0,0.01,0.01709040440618992,-0.0053842151537537575,-0.005959289614111185,0.01,0.0,0.0,0.0,0.01,0.0,0.0,0.0,0.01,-0.4618891606977209,-9.659474986961483,-0.6222266933765263,0.01,0.0,0.0,0.0,0.01,0.0,0.0,0.0,0.01
1700026235.2162178,26575,1700026235,196818176,gx5_link,0.6791146397590637,0.10820040851831436,0.15697064995765686,0.7088415622711182,0.01,0.0,0.0,0.0,0.01,0.0,0.0,0.0,0.01,0.019623151049017906,-0.01488986425101757,-0.007890550419688225,0.01,0.0,0.0,0.0,0.01,0.0,0.0,0.0,0.01,-0.48591034348271783,-9.705819974029064,-0.5798803474910557,0.01,0.0,0.0,0.0,0.01,0.0,0.0,0.0,0.01
1700026235.2229187,26576,1700026235,206830336,gx5_link,0.6791907548904419,0.10817788541316986,0.15686623752117157,0.7087950706481934,0.01,0.0,0.0,0.0,0.01,0.0,0.0,0.0,0.01,0.018558813259005547,-0.018354997038841248,-0.005970929283648729,0.01,0.0,0.0,0.0,0.01,0.0,0.0,0.0,0.01,-0.5107448154119775,-9.750262926867604,-0.5497851420219987,0.01,0.0,0.0,0.0,0.01,0.0,0.0,0.0,0.01
1700026235.233138,26577,1700026235,216844544,gx5_link,0.6792651414871216,0.10812162607908249,0.15674085915088654,0.7087600827217102,0.01,0.0,0.0,0.0,0.01,0.0,0.0,0.0,0.01,0.017202850431203842,-0.024090690538287163,-0.005808962043374777,0.01,0.0,0.0,0.0,0.01,0.0,0.0,0.0,0.01,-0.5414166882578283,-9.757987968161702,-0.5592607898430898,0.01,0.0,0.0,0.0,0.01,0.0,0.0,0.0,0.01
1700026235.243889,26578,1700026235,226860288,gx5_link,0.6793400645256042,0.10804527252912521,0.15661443769931793,0.7087278962135315,0.01,0.0,0.0,0.0,0.01,0.0,0.0,0.0,0.01,0.017280202358961105,-0.027628572657704353,-0.004560473840683699,0.01,0.0,0.0,0.0,0.01,0.0,0.0,0.0,0.01,-0.5747133931819349,-9.759141814371944,-0.5595815462300554,0.01,0.0,0.0,0.0,0.01,0.0,0.0,0.0,0.01
1700026235.2533445,26579,1700026235,236872192,gx5_link,0.6794342398643494,0.1079680547118187,0.15649551153182983,0.7086756229400635,0.01,0.0,0.0,0.0,0.01,0.0,0.0,0.0,0.01,0.01876722276210785,-0.028790859505534172,-0.004812423139810562,0.01,0.0,0.0,0.0,0.01,0.0,0.0,0.0,0.01,-0.6210317845035344,-9.763136436966061,-0.516827678989619,0.01,0.0,0.0,0.0,0.01,0.0,0.0,0.0,0.01
1700026235.2636025,26580,1700026235,246886400,gx5_link,0.6795312166213989,0.10791139304637909,0.1563684195280075,0.7086193561553955,0.01,0.0,0.0,0.0,0.01,0.0,0.0,0.0,0.01,0.0206911638379097,-0.028942853212356567,-0.009406711906194687,0.01,0.0,0.0,0.0,0.01,0.0,0.0,0.0,0.01,-0.6589405863329768,-9.737721425202489,-0.4731174608724191,0.01,0.0,0.0,0.0,0.01,0.0,0.0,0.0,0.01
1700026235.2742996,26581,1700026235,256902400,gx5_link,0.6796143054962158,0.10792431980371475,0.15621690452098846,0.708571195602417,0.01,0.0,0.0,0.0,0.01,0.0,0.0,0.0,0.01,0.019265012815594673,-0.022402998059988022,-0.022589705884456635,0.01,0.0,0.0,0.0,0.01,0.0,0.0,0.0,0.01,-0.6756103469092398,-9.712501643750072,-0.4552280223080888,0.01,0.0,0.0,0.0,0.01,0.0,0.0,0.0,0.01
1700026235.2859786,26582,1700026235,266920448,gx5_link,0.6796737313270569,0.1080312430858612,0.15600401163101196,0.7085447311401367,0.01,0.0,0.0,0.0,0.01,0.0,0.0,0.0,0.01,0.0173932034522295,-0.0173848457634449,-0.04423537477850914,0.01,0.0,0.0,0.0,0.01,0.0,0.0,0.0,0.01,-0.6770241592299193,-9.686764560425281,-0.42801819954961534,0.01,0.0,0.0,0.0,0.01,0.0,0.0,0.0,0.01
1700026235.2932029,26583,1700026235,276934144,gx5_link,0.6797144412994385,0.10823386907577515,0.15573188662528992,0.7085345983505249,0.01,0.0,0.0,0.0,0.01,0.0,0.0,0.0,0.01,0.015822267159819603,-0.01245386153459549,-0.06564333289861679,0.01,0.0,0.0,0.0,0.01,0.0,0.0,0.0,0.01,-0.6608258886229247,-9.703069214016198,-0.37388964593373236,0.01,0.0,0.0,0.0,0.01,0.0,0.0,0.0,0.01
1700026235.3075283,26584,1700026235,286949376,gx5_link,0.6797682642936707,0.10852480679750443,0.15542979538440704,0.7085049152374268,0.01,0.0,0.0,0.0,0.01,0.0,0.0,0.0,0.01,0.020322488620877266,-0.0029262909665703773,-0.07957936078310013,0.01,0.0,0.0,0.0,0.01,0.0,0.0,0.0,0.01,-0.6399360261335969,-9.762956988745927,-0.3270056200860068,0.01,0.0,0.0,0.0,0.01,0.0,0.0,0.0,0.01
1700026235.311155,26585,1700026235,296961280,gx5_link,0.6798410415649414,0.10887426137924194,0.15515702962875366,0.7084411382675171,0.01,0.0,0.0,0.0,0.01,0.0,0.0,0.0,0.01,0.027485515922307968,0.007903032936155796,-0.08353704959154129,0.01,0.0,0.0,0.0,0.01,0.0,0.0,0.0,0.01,-0.6254435365311801,-9.86994670639038,-0.3137941102048382,0.01,0.0,0.0,0.0,0.01,0.0,0.0,0.0,0.01
1700026235.324413,26586,1700026235,306976768,gx5_link,0.6798980236053467,0.10924635827541351,0.15496031939983368,0.7083722352981567,0.01,0.0,0.0,0.0,0.01,0.0,0.0,0.0,0.01,0.02792326733469963,0.021841613575816154,-0.07765372097492218,0.01,0.0,0.0,0.0,0.01,0.0,0.0,0.0,0.01,-0.6133084237098694,-9.927857628089189,-0.37208628630619495,0.01,0.0,0.0,0.0,0.01,0.0,0.0,0.0,0.01
1700026235.3337007,26587,1700026235,316992000,gx5_link,0.6799142360687256,0.10962540656328201,0.15480834245681763,0.7083313465118408,0.01,0.0,0.0,0.0,0.01,0.0,0.0,0.0,0.01,0.020732926204800606,0.03083324059844017,-0.0741310864686966,0.01,0.0,0.0,0.0,0.01,0.0,0.0,0.0,0.01,-0.5944174799527973,-9.953495927214622,-0.44596320422608404,0.01,0.0,0.0,0.0,0.01,0.0,0.0,0.0,0.01
1700026235.3417537,26588,1700026235,327004416,gx5_link,0.6798815131187439,0.11001847684383392,0.15470178425312042,0.7083250284194946,0.01,0.0,0.0,0.0,0.01,0.0,0.0,0.0,0.01,0.010925895534455776,0.03931856527924538,-0.07029896974563599,0.01,0.0,0.0,0.0,0.01,0.0,0.0,0.0,0.01,-0.5509506056047976,-9.880268193918466,-0.4639264752116054,0.01,0.0,0.0,0.0,0.01,0.0,0.0,0.0,0.01
1700026235.3561633,26589,1700026235,337018880,gx5_link,0.679799497127533,0.11043720692396164,0.1545935571193695,0.7083622813224792,0.01,0.0,0.0,0.0,0.01,0.0,0.0,0.0,0.01,0.002721340162679553,0.044694725424051285,-0.07398074865341187,0.01,0.0,0.0,0.0,0.01,0.0,0.0,0.0,0.01,-0.49188967362064867,-9.791555306720733,-0.5604162434885278,0.01,0.0,0.0,0.0,0.01,0.0,0.0,0.0,0.01
1700026235.363426,26590,1700026235,347034624,gx5_link,0.6796815991401672,0.11082632094621658,0.15443824231624603,0.708448588848114,0.01,0.0,0.0,0.0,0.01,0.0,0.0,0.0,0.01,-0.004791135899722576,0.039430346339941025,-0.07566837221384048,0.01,0.0,0.0,0.0,0.01,0.0,0.0,0.0,0.01,-0.4625940210314467,-9.803549695897102,-0.6699254331406206,0.01,0.0,0.0,0.0,0.01,0.0,0.0,0.0,0.01
1700026235.3759346,26591,1700026235,357052416,gx5_link,0.6795588135719299,0.11112427711486816,0.1542789340019226,0.7085543274879456,0.01,0.0,0.0,0.0,0.01,0.0,0.0,0.0,0.01,-0.008387480862438679,0.026787864044308662,-0.06636588275432587,0.01,0.0,0.0,0.0,0.01,0.0,0.0,0.0,0.01,-0.43268293995764107,-9.81787515836954,-0.7477642404288053,0.01,0.0,0.0,0.0,0.01,0.0,0.0,0.0,0.01
1700026235.3825502,26592,1700026235,367065856,gx5_link,0.6794540286064148,0.11131218820810318,0.15413998067378998,0.708655595779419,0.01,0.0,0.0,0.0,0.01,0.0,0.0,0.0,0.01,-0.011025640182197094,0.013795195147395134,-0.04863506183028221,0.01,0.0,0.0,0.0,0.01,0.0,0.0,0.0,0.01,-0.41807402090132234,-9.813414087307452,-0.7438084885403513,0.01,0.0,0.0,0.0,0.01,0.0,0.0,0.0,0.01
1700026235.3932729,26593,1700026235,377080832,gx5_link,0.679370641708374,0.11138946563005447,0.1540754735469818,0.7087373733520508,0.01,0.0,0.0,0.0,0.01,0.0,0.0,0.0,0.01,-0.011561274528503418,0.006372640375047922,-0.02466094121336937,0.01,0.0,0.0,0.0,0.01,0.0,0.0,0.0,0.01,-0.4360927484011277,-9.826431389790773,-0.7182203852321952,0.01,0.0,0.0,0.0,0.01,0.0,0.0,0.0,0.01
1700026235.4016445,26594,1700026235,387092736,gx5_link,0.6793157458305359,0.11135754734277725,0.15412677824497223,0.7087838649749756,0.01,0.0,0.0,0.0,0.01,0.0,0.0,0.0,0.01,-0.009849021211266518,0.004851090721786022,0.005590115673840046,0.01,0.0,0.0,0.0,0.01,0.0,0.0,0.0,0.01,-0.4729325692921877,-9.809434662282467,-0.6763404878146946,0.01,0.0,0.0,0.0,0.01,0.0,0.0,0.0,0.01
1700026235.418383,26595,1700026235,397108224,gx5_link,0.6792910695075989,0.11128395795822144,0.15429475903511047,0.7087824940681458,0.01,0.0,0.0,0.0,0.01,0.0,0.0,0.0,0.01,-0.007080618292093277,0.013578115031123161,0.029401790350675583,0.01,0.0,0.0,0.0,0.01,0.0,0.0,0.0,0.01,-0.5028332751024515,-9.752475342220068,-0.6083037838229909,0.01,0.0,0.0,0.0,0.01,0.0,0.0,0.0,0.01
1700026235.4231064,26596,1700026235,407123456,gx5_link,0.6792711615562439,0.11121076345443726,0.15454724431037903,0.7087581157684326,0.01,0.0,0.0,0.0,0.01,0.0,0.0,0.0,0.01,-0.004554742015898228,0.0243451576679945,0.04165679216384888,0.01,0.0,0.0,0.0,0.01,0.0,0.0,0.0,0.01,-0.5216687258126214,-9.6522251619637,-0.608369652133435,0.01,0.0,0.0,0.0,0.01,0.0,0.0,0.0,0.01
1700026235.4310915,26597,1700026235,417135616,gx5_link,0.6792321801185608,0.11116170138120651,0.1547849327325821,0.7087513208389282,0.01,0.0,0.0,0.0,0.01,0.0,0.0,0.0,0.01,-0.005527110770344734,0.027599455788731575,0.03802181035280228,0.01,0.0,0.0,0.0,0.01,0.0,0.0,0.0,0.01,-0.5296463901609182,-9.562729015433789,-0.6600362726151943,0.01,0.0,0.0,0.0,0.01,0.0,0.0,0.0,0.01
1700026235.4434745,26598,1700026235,427149824,gx5_link,0.6791678071022034,0.11113683879375458,0.1549384444952011,0.7087833881378174,0.01,0.0,0.0,0.0,0.01,0.0,0.0,0.0,0.01,-0.008993055671453476,0.02221405692398548,0.023547576740384102,0.01,0.0,0.0,0.0,0.01,0.0,0.0,0.0,0.01,-0.5318127744145691,-9.518197799789904,-0.7050520569056272,0.01,0.0,0.0,0.0,0.01,0.0,0.0,0.0,0.01
1700026235.454045,26599,1700026235,433169664,gx5_link,0.6790965795516968,0.11112605780363083,0.15500707924365997,0.7088383436203003,0.01,0.0,0.0,0.0,0.01,0.0,0.0,0.0,0.01,-0.010542399249970913,0.013093802146613598,0.009305726736783981,0.01,0.0,0.0,0.0,0.01,0.0,0.0,0.0,0.01,-0.5425870837440714,-9.511348956808447,-0.7467865545030683,0.01,0.0,0.0,0.0,0.01,0.0,0.0,0.0,0.01
1700026235.465966,26600,1700026235,443191296,gx5_link,0.6790541410446167,0.11112014949321747,0.15501590073108673,0.7088779807090759,0.01,0.0,0.0,0.0,0.01,0.0,0.0,0.0,0.01,-0.004896278027445078,0.004664681851863861,-3.0186492949724197e-05,0.01,0.0,0.0,0.0,0.01,0.0,0.0,0.0,0.01,-0.5622676435088738,-9.548373157823086,-0.7222167613919824,0.01,0.0,0.0,0.0,0.01,0.0,0.0,0.0,0.01
1700026235.4761753,26601,1700026235,453208832,gx5_link,0.6790715456008911,0.1111186072230339,0.1550186276435852,0.7088608741760254,0.01,0.0,0.0,0.0,0.01,0.0,0.0,0.0,0.01,0.006753317546099424,0.001743809087201953,-1.1757947504520416e-08,0.01,0.0,0.0,0.0,0.01,0.0,0.0,0.0,0.01,-0.5955958760824054,-9.576855740463733,-0.6300642551343888,0.01,0.0,0.0,0.0,0.01,0.0,0.0,0.0,0.01
1700026235.4827704,26602,1700026235,463227904,gx5_link,0.6791390180587769,0.11113199591636658,0.15505360066890717,0.7087866067886353,0.01,0.0,0.0,0.0,0.01,0.0,0.0,0.0,0.01,0.02007186971604824,0.007664879318326712,0.0016256077215075493,0.01,0.0,0.0,0.0,0.01,0.0,0.0,0.0,0.01,-0.6342590034104884,-9.580948562735319,-0.5925911413084716,0.01,0.0,0.0,0.0,0.01,0.0,0.0,0.0,0.01
1700026235.4917357,26603,1700026235,473243648,gx5_link,0.679248571395874,0.1111811175942421,0.15510518848896027,0.7086625695228577,0.01,0.0,0.0,0.0,0.01,0.0,0.0,0.0,0.01,0.03276608884334564,0.014042133465409279,0.0013431748375296593,0.01,0.0,0.0,0.0,0.01,0.0,0.0,0.0,0.01,-0.6678497228451072,-9.57635948137939,-0.544689608981274,0.01,0.0,0.0,0.0,0.01,0.0,0.0,0.0,0.01
1700026235.5046682,26604,1700026235,483262720,gx5_link,0.6794021725654602,0.11128561943769455,0.15517206490039825,0.7084841728210449,0.01,0.0,0.0,0.0,0.01,0.0,0.0,0.0,0.01,0.04579346254467964,0.023121654987335205,-0.0022955466993153095,0.01,0.0,0.0,0.0,0.01,0.0,0.0,0.0,0.01,-0.6937141588766127,-9.576249591264128,-0.5171577877268195,0.01,0.0,0.0,0.0,0.01,0.0,0.0,0.0,0.01
1700026235.5136845,26605,1700026235,493282048,gx5_link,0.679567813873291,0.11148788034915924,0.15524286031723022,0.7082780003547668,0.01,0.0,0.0,0.0,0.01,0.0,0.0,0.0,0.01,0.054358672350645065,0.037082090973854065,-0.012760329991579056,0.01,0.0,0.0,0.0,0.01,0.0,0.0,0.0,0.01,-0.70070357937254,-9.567023497757315,-0.4918896005554124,0.01,0.0,0.0,0.0,0.01,0.0,0.0,0.0,0.01
1700026235.522014,26606,1700026235,503298304,gx5_link,0.6797243356704712,0.11181717365980148,0.15529818832874298,0.7080637216567993,0.01,0.0,0.0,0.0,0.01,0.0,0.0,0.0,0.01,0.05768286809325218,0.05329836905002594,-0.029958294704556465,0.01,0.0,0.0,0.0,0.01,0.0,0.0,0.0,0.01,-0.6803171363607049,-9.581325579354166,-0.45105234405864025,0.01,0.0,0.0,0.0,0.01,0.0,0.0,0.0,0.01
1700026235.540249,26607,1700026235,513316608,gx5_link,0.6798639893531799,0.11227769404649734,0.15534041821956635,0.707847535610199,0.01,0.0,0.0,0.0,0.01,0.0,0.0,0.0,0.01,0.060084663331508636,0.07076460123062134,-0.04825276881456375,0.01,0.0,0.0,0.0,0.01,0.0,0.0,0.0,0.01,-0.6271117620043456,-9.632874564805626,-0.4330055229755118,0.01,0.0,0.0,0.0,0.01,0.0,0.0,0.0,0.01
1700026235.543486,26608,1700026235,523336192,gx5_link,0.6799811720848083,0.11280152946710587,0.15539103746414185,0.707640528678894,0.01,0.0,0.0,0.0,0.01,0.0,0.0,0.0,0.01,0.060112498700618744,0.08281251788139343,-0.05382165312767029,0.01,0.0,0.0,0.0,0.01,0.0,0.0,0.0,0.01,-0.5583266873307525,-9.757203539785742,-0.47080867247339336,0.01,0.0,0.0,0.0,0.01,0.0,0.0,0.0,0.01
1700026235.5560062,26609,1700026235,533357568,gx5_link,0.6800944805145264,0.11332894116640091,0.1554776132106781,0.7074283361434937,0.01,0.0,0.0,0.0,0.01,0.0,0.0,0.0,0.01,0.0610223226249218,0.08898429572582245,-0.048590485006570816,0.01,0.0,0.0,0.0,0.01,0.0,0.0,0.0,0.01,-0.48924058388397096,-9.841986686319112,-0.5310134772630408,0.01,0.0,0.0,0.0,0.01,0.0,0.0,0.0,0.01
1700026235.562919,26610,1700026235,543374848,gx5_link,0.6802117228507996,0.11380772292613983,0.15558220446109772,0.7072156667709351,0.01,0.0,0.0,0.0,0.01,0.0,0.0,0.0,0.01,0.061164919286966324,0.08581145107746124,-0.039275337010622025,0.01,0.0,0.0,0.0,0.01,0.0,0.0,0.0,0.01,-0.4214596812842413,-9.862267257803678,-0.5833230718234553,0.01,0.0,0.0,0.0,0.01,0.0,0.0,0.0,0.01
1700026235.5732763,26611,1700026235,553393408,gx5_link,0.6803291440010071,0.11423113197088242,0.15566815435886383,0.7070155143737793,0.01,0.0,0.0,0.0,0.01,0.0,0.0,0.0,0.01,0.05881999433040619,0.07731493562459946,-0.03300709277391434,0.01,0.0,0.0,0.0,0.01,0.0,0.0,0.0,0.01,-0.3665922189345583,-9.865668006157874,-0.5874892881248146,0.01,0.0,0.0,0.0,0.01,0.0,0.0,0.0,0.01
1700026235.5823894,26612,1700026235,563409152,gx5_link,0.6804397702217102,0.11460839956998825,0.15570485591888428,0.706839919090271,0.01,0.0,0.0,0.0,0.01,0.0,0.0,0.0,0.01,0.05370630696415901,0.0642331913113594,-0.03194516897201538,0.01,0.0,0.0,0.0,0.01,0.0,0.0,0.0,0.01,-0.3263708293138072,-9.876495689642429,-0.563352808397077,0.01,0.0,0.0,0.0,0.01,0.0,0.0,0.0,0.01
1700026235.599954,26613,1700026235,573428224,gx5_link,0.6805270314216614,0.11491931974887848,0.15568560361862183,0.7067097425460815,0.01,0.0,0.0,0.0,0.01,0.0,0.0,0.0,0.01,0.04352092370390892,0.04879308119416237,-0.031626179814338684,0.01,0.0,0.0,0.0,0.01,0.0,0.0,0.0,0.01,-0.2942330486338585,-9.90338954178691,-0.5404428382569924,0.01,0.0,0.0,0.0,0.01,0.0,0.0,0.0,0.01
1700026235.6034927,26614,1700026235,583447040,gx5_link,0.6805857419967651,0.11514647305011749,0.15564167499542236,0.7066258788108826,0.01,0.0,0.0,0.0,0.01,0.0,0.0,0.0,0.01,0.03306860476732254,0.03273235633969307,-0.025825154036283493,0.01,0.0,0.0,0.0,0.01,0.0,0.0,0.0,0.01,-0.2761960913576186,-9.94419501490593,-0.5589241782998666,0.01,0.0,0.0,0.0,0.01,0.0,0.0,0.0,0.01
1700026235.6108828,26615,1700026235,593462784,gx5_link,0.6806350350379944,0.11524269729852676,0.15558195114135742,0.7065758109092712,0.01,0.0,0.0,0.0,0.01,0.0,0.0,0.0,0.01,0.024534394964575768,0.013275816105306149,-0.012242271564900875,0.01,0.0,0.0,0.0,0.01,0.0,0.0,0.0,0.01,-0.2875455884928815,-9.972253234654664,-0.5635751459108665,0.01,0.0,0.0,0.0,0.01,0.0,0.0,0.0,0.01
1700026235.622617,26616,1700026235,603480320,gx5_link,0.6807236671447754,0.11519675701856613,0.15556420385837555,0.7065017819404602,0.01,0.0,0.0,0.0,0.01,0.0,0.0,0.0,0.01,0.024151882156729698,-0.0017188929487019777,0.010637808591127396,0.01,0.0,0.0,0.0,0.01,0.0,0.0,0.0,0.01,-0.3355352922938764,-9.972450803053379,-0.5065472541242838,0.01,0.0,0.0,0.0,0.01,0.0,0.0,0.0,0.01
1700026235.6444411,26617,1700026235,613499904,gx5_link,0.680851399898529,0.11508084088563919,0.15560780465602875,0.7063880562782288,0.01,0.0,0.0,0.0,0.01,0.0,0.0,0.0,0.01,0.02667144313454628,-0.00615574000403285,0.028018344193696976,0.01,0.0,0.0,0.0,0.01,0.0,0.0,0.0,0.01,-0.3750542692663148,-9.876408011358976,-0.42214908832050857,0.01,0.0,0.0,0.0,0.01,0.0,0.0,0.0,0.01
1700026235.6444707,26618,1700026235,623515136,gx5_link,0.6809779405593872,0.11498069018125534,0.15566986799240112,0.7062686681747437,0.01,0.0,0.0,0.0,0.01,0.0,0.0,0.0,0.01,0.026252832263708115,-0.0033308856654912233,0.030090147629380226,0.01,0.0,0.0,0.0,0.01,0.0,0.0,0.0,0.01,-0.41002544674128294,-9.767303493517637,-0.37461251684818414,0.01,0.0,0.0,0.0,0.01,0.0,0.0,0.0,0.01
1700026235.6612768,26619,1700026235,633540096,gx5_link,0.6810817122459412,0.11491510272026062,0.15567773580551147,0.7061775326728821,0.01,0.0,0.0,0.0,0.01,0.0,0.0,0.0,0.01,0.024177750572562218,-0.005123574752360582,0.016908233985304832,0.01,0.0,0.0,0.0,0.01,0.0,0.0,0.0,0.01,-0.44518564398232846,-9.715939216983317,-0.4158067335564643,0.01,0.0,0.0,0.0,0.01,0.0,0.0,0.0,0.01
1700026235.665285,26620,1700026235,643558400,gx5_link,0.6811666488647461,0.11485598981380463,0.155616894364357,0.706118643283844,0.01,0.0,0.0,0.0,0.01,0.0,0.0,0.0,0.01,0.021475983783602715,-0.013181508518755436,0.00528753362596035,0.01,0.0,0.0,0.0,0.01,0.0,0.0,0.0,0.01,-0.48609541772603987,-9.783687642085551,-0.45460598141960795,0.01,0.0,0.0,0.0,0.01,0.0,0.0,0.0,0.01
1700026235.6746767,26621,1700026235,653573632,gx5_link,0.6812673211097717,0.1147896945476532,0.155535489320755,0.7060502171516418,0.01,0.0,0.0,0.0,0.01,0.0,0.0,0.0,0.01,0.02305704727768898,-0.017451805993914604,0.001053031301125884,0.01,0.0,0.0,0.0,0.01,0.0,0.0,0.0,0.01,-0.518615293058753,-9.798077401965855,-0.44237456861697133,0.01,0.0,0.0,0.0,0.01,0.0,0.0,0.0,0.01
1700026235.6851444,26622,1700026235,663590656,gx5_link,0.6813806295394897,0.11474774032831192,0.15542252361774445,0.7059726715087891,0.01,0.0,0.0,0.0,0.01,0.0,0.0,0.0,0.01,0.026438739150762558,-0.01857309229671955,-0.007102704606950283,0.01,0.0,0.0,0.0,0.01,0.0,0.0,0.0,0.01,-0.5236161700859665,-9.732257314577698,-0.3922718364510685,0.01,0.0,0.0,0.0,0.01,0.0,0.0,0.0,0.01
1700026235.6947784,26623,1700026235,673609472,gx5_link,0.6815026998519897,0.11478783935308456,0.15528209507465363,0.7058790922164917,0.01,0.0,0.0,0.0,0.01,0.0,0.0,0.0,0.01,0.030504995957016945,-0.013744652271270752,-0.018647877499461174,0.01,0.0,0.0,0.0,0.01,0.0,0.0,0.0,0.01,-0.5481430739033967,-9.7659567550838,-0.3519937847396359,0.01,0.0,0.0,0.0,0.01,0.0,0.0,0.0,0.01
1700026235.7046843,26624,1700026235,683625216,gx5_link,0.6816193461418152,0.11487606912851334,0.15514151751995087,0.7057830095291138,0.01,0.0,0.0,0.0,0.01,0.0,0.0,0.0,0.01,0.033004797995090485,-0.007065637037158012,-0.02745586819946766,0.01,0.0,0.0,0.0,0.01,0.0,0.0,0.0,0.01,-0.5658542698239907,-9.826391642302275,-0.36424266013372686,0.01,0.0,0.0,0.0,0.01,0.0,0.0,0.0,0.01
1700026235.7151308,26625,1700026235,693642752,gx5_link,0.6817194819450378,0.11499012261629105,0.1550016701221466,0.7056984305381775,0.01,0.0,0.0,0.0,0.01,0.0,0.0,0.0,0.01,0.030768927186727524,-0.001897880109027028,-0.03213929384946823,0.01,0.0,0.0,0.0,0.01,0.0,0.0,0.0,0.01,-0.5776905092965812,-9.901965646463632,-0.38961777827832844,0.01,0.0,0.0,0.0,0.01,0.0,0.0,0.0,0.01
1700026235.7292178,26626,1700026235,703661824,gx5_link,0.681795597076416,0.11509501188993454,0.154888316988945,0.705632746219635,0.01,0.0,0.0,0.0,0.01,0.0,0.0,0.0,0.01,0.02696787752211094,0.0017890715971589088,-0.028862548992037773,0.01,0.0,0.0,0.0,0.01,0.0,0.0,0.0,0.01,-0.5851169329702853,-9.943152227854728,-0.4407345463249832,0.01,0.0,0.0,0.0,0.01,0.0,0.0,0.0,0.01
1700026235.7424753,26627,1700026235,719683072,gx5_link,0.6818876266479492,0.11517706513404846,0.154755100607872,0.7055596113204956,0.01,0.0,0.0,0.0,0.01,0.0,0.0,0.0,0.01,0.030760690569877625,-0.0038109212182462215,-0.02994607947766781,0.01,0.0,0.0,0.0,0.01,0.0,0.0,0.0,0.01,-0.587204224105738,-9.902675256037712,-0.4721105488521978,0.01,0.0,0.0,0.0,0.01,0.0,0.0,0.0,0.01
1700026235.7565143,26628,1700026235,729703168,gx5_link,0.682011604309082,0.11526306718587875,0.15458503365516663,0.7054629921913147,0.01,0.0,0.0,0.0,0.01,0.0,0.0,0.0,0.01,0.036150041967630386,-0.00759185291826725,-0.032953761518001556,0.01,0.0,0.0,0.0,0.01,0.0,0.0,0.0,0.01,-0.6068260394206271,-9.928608154195546,-0.43850170923899856,0.01,0.0,0.0,0.0,0.01,0.0,0.0,0.0,0.01
1700026235.758831,26629,1700026235,739721728,gx5_link,0.6821479201316833,0.11537102609872818,0.15444594621658325,0.705344021320343,0.01,0.0,0.0,0.0,0.01,0.0,0.0,0.0,0.01,0.03816409409046173,-0.0033570737577974796,-0.03226114809513092,0.01,0.0,0.0,0.0,0.01,0.0,0.0,0.0,0.01,-0.6221965904992074,-9.98777813604474,-0.3472994529109448,0.01,0.0,0.0,0.0,0.01,0.0,0.0,0.0,0.01
1700026235.765435,26630,1700026235,749736704,gx5_link,0.6822407841682434,0.11550737172365189,0.1543525904417038,0.7052522897720337,0.01,0.0,0.0,0.0,0.01,0.0,0.0,0.0,0.01,0.02852645143866539,0.005388994701206684,-0.03060237318277359,0.01,0.0,0.0,0.0,0.01,0.0,0.0,0.0,0.01,-0.6343646557420491,-10.04930607919693,-0.3115688353708014,0.01,0.0,0.0,0.0,0.01,0.0,0.0,0.0,0.01
1700026235.7773638,26631,1700026235,759753728,gx5_link,0.6822835206985474,0.11566139757633209,0.1543305516242981,0.7051905393600464,0.01,0.0,0.0,0.0,0.01,0.0,0.0,0.0,0.01,0.015383079648017883,0.01897970773279667,-0.026342196390032768,0.01,0.0,0.0,0.0,0.01,0.0,0.0,0.0,0.01,-0.6374695629548282,-10.076711972516774,-0.24935628922162575,0.01,0.0,0.0,0.0,0.01,0.0,0.0,0.0,0.01
1700026235.7909691,26632,1700026235,769772288,gx5_link,0.6822876930236816,0.11586190015077591,0.15440432727336884,0.7051375508308411,0.01,0.0,0.0,0.0,0.01,0.0,0.0,0.0,0.01,0.005144521594047546,0.03932137414813042,-0.021118517965078354,0.01,0.0,0.0,0.0,0.01,0.0,0.0,0.0,0.01,-0.6211776227150112,-10.054047720766066,-0.17979871407188475,0.01,0.0,0.0,0.0,0.01,0.0,0.0,0.0,0.01
1700026235.7954414,26633,1700026235,779786496,gx5_link,0.6822245717048645,0.1161482185125351,0.15455056726932526,0.7051193714141846,0.01,0.0,0.0,0.0,0.01,0.0,0.0,0.0,0.01,-0.007878785021603107,0.061402272433042526,-0.023968100547790527,0.01,0.0,0.0,0.0,0.01,0.0,0.0,0.0,0.01,-0.5768728362381458,-9.97903018144369,-0.18627028470616785,0.01,0.0,0.0,0.0,0.01,0.0,0.0,0.0,0.01
1700026235.807267,26634,1700026235,789802496,gx5_link,0.6820720434188843,0.11651384830474854,0.15471260249614716,0.7051711678504944,0.01,0.0,0.0,0.0,0.01,0.0,0.0,0.0,0.01,-0.023237504065036774,0.0774492397904396,-0.033788759261369705,0.01,0.0,0.0,0.0,0.01,0.0,0.0,0.0,0.01,-0.5221883292399346,-9.933658423322438,-0.2833696545151062,0.01,0.0,0.0,0.0,0.01,0.0,0.0,0.0,0.01
1700026235.8195493,26635,1700026235,799821312,gx5_link,0.6818436980247498,0.11694721132516861,0.15484732389450073,0.7052906155586243,0.01,0.0,0.0,0.0,0.01,0.0,0.0,0.0,0.01,-0.036335594952106476,0.08621767163276672,-0.046120189130306244,0.01,0.0,0.0,0.0,0.01,0.0,0.0,0.0,0.01,-0.45414114038683473,-9.928224707835913,-0.38310744653623546,0.01,0.0,0.0,0.0,0.01,0.0,0.0,0.0,0.01
1700026235.8313363,26636,1700026235,809841920,gx5_link,0.6815483570098877,0.11740296334028244,0.15493851900100708,0.7054802775382996,0.01,0.0,0.0,0.0,0.01,0.0,0.0,0.0,0.01,-0.04905995354056358,0.08454842865467072,-0.057014454156160355,0.01,0.0,0.0,0.0,0.01,0.0,0.0,0.0,0.01,-0.37911136263739315,-9.892298823451995,-0.5290139009436592,0.01,0.0,0.0,0.0,0.01,0.0,0.0,0.0,0.01
1700026235.8373053,26637,1700026235,819858432,gx5_link,0.6812259554862976,0.11780855059623718,0.1549670547246933,0.7057177424430847,0.01,0.0,0.0,0.0,0.01,0.0,0.0,0.0,0.01,-0.057756464928388596,0.0738014429807663,-0.05954839661717415,0.01,0.0,0.0,0.0,0.01,0.0,0.0,0.0,0.01,-0.3209063168302178,-9.87947675127983,-0.5900434661196544,0.01,0.0,0.0,0.0,0.01,0.0,0.0,0.0,0.01
1700026235.8490982,26638,1700026235,829876480,gx5_link,0.680947482585907,0.11815252155065536,0.15500815212726593,0.7059199810028076,0.01,0.0,0.0,0.0,0.01,0.0,0.0,0.0,0.01,-0.05143611878156662,0.06759067624807358,-0.04699172079563141,0.01,0.0,0.0,0.0,0.01,0.0,0.0,0.0,0.01,-0.27909382209312167,-9.904465062063931,-0.5660344121638685,0.01,0.0,0.0,0.0,0.01,0.0,0.0,0.0,0.01
1700026235.8572319,26639,1700026235,839891712,gx5_link,0.680739164352417,0.11841008067131042,0.1551491916179657,0.7060467600822449,0.01,0.0,0.0,0.0,0.01,0.0,0.0,0.0,0.01,-0.040317364037036896,0.0670720785856247,-0.02069692872464657,0.01,0.0,0.0,0.0,0.01,0.0,0.0,0.0,0.01,-0.2424193660979159,-9.84706501249671,-0.5391951397508382,0.01,0.0,0.0,0.0,0.01,0.0,0.0,0.0,0.01
1700026235.8672307,26640,1700026235,849908224,gx5_link,0.6805723905563354,0.1186484768986702,0.15532805025577545,0.7061281204223633,0.01,0.0,0.0,0.0,0.01,0.0,0.0,0.0,0.01,-0.028803380206227303,0.06857182085514069,-0.009349636733531952,0.01,0.0,0.0,0.0,0.01,0.0,0.0,0.0,0.01,-0.2140175570758991,-9.719464468500018,-0.5793115346271545,0.01,0.0,0.0,0.0,0.01,0.0,0.0,0.0,0.01
1700026235.8789926,26641,1700026235,859926272,gx5_link,0.6804198622703552,0.1188567727804184,0.15550898015499115,0.706200361251831,0.01,0.0,0.0,0.0,0.01,0.0,0.0,0.0,0.01,-0.02360936999320984,0.06566024571657181,-0.0025376221165060997,0.01,0.0,0.0,0.0,0.01,0.0,0.0,0.0,0.01,-0.20612251124344766,-9.665392102050781,-0.5947470407007261,0.01,0.0,0.0,0.0,0.01,0.0,0.0,0.0,0.01
1700026235.8862517,26642,1700026235,869941504,gx5_link,0.6803033351898193,0.11907117813825607,0.15566766262054443,0.7062414884567261,0.01,0.0,0.0,0.0,0.01,0.0,0.0,0.0,0.01,-0.01694386824965477,0.06209830194711685,-0.0023121952544897795,0.01,0.0,0.0,0.0,0.01,0.0,0.0,0.0,0.01,-0.18220740091511978,-9.63892670445144,-0.5388910422377288,0.01,0.0,0.0,0.0,0.01,0.0,0.0,0.0,0.01
1700026235.8981328,26643,1700026235,879958528,gx5_link,0.6801801919937134,0.1192971020936966,0.15580864250659943,0.7062909603118896,0.01,0.0,0.0,0.0,0.01,0.0,0.0,0.0,0.01,-0.016568319872021675,0.06112924590706825,-0.006726355291903019,0.01,0.0,0.0,0.0,0.01,0.0,0.0,0.0,0.01,-0.1614768571733497,-9.638838441646099,-0.5651075796425342,0.01,0.0,0.0,0.0,0.01,0.0,0.0,0.0,0.01
1700026235.9099069,26644,1700026235,889977088,gx5_link,0.6800627112388611,0.11948977410793304,0.1559184044599533,0.7063472867012024,0.01,0.0,0.0,0.0,0.01,0.0,0.0,0.0,0.01,-0.014433682896196842,0.05442989990115166,-0.004807017277926207,0.01,0.0,0.0,0.0,0.01,0.0,0.0,0.0,0.01,-0.15215058209453708,-9.714620535600185,-0.6035407706722616,0.01,0.0,0.0,0.0,0.01,0.0,0.0,0.0,0.01
1700026235.9217944,26645,1700026235,899997696,gx5_link,0.6799736022949219,0.11960562318563461,0.1560487300157547,0.7063845992088318,0.01,0.0,0.0,0.0,0.01,0.0,0.0,0.0,0.01,-0.012684637680649757,0.04575573652982712,0.007634246721863747,0.01,0.0,0.0,0.0,0.01,0.0,0.0,0.0,0.01,-0.13358341779857874,-9.760946817967294,-0.5985778875678778,0.01,0.0,0.0,0.0,0.01,0.0,0.0,0.0,0.01
1700026235.9288476,26646,1700026235,910013696,gx5_link,0.679883599281311,0.11965007334947586,0.15617981553077698,0.7064347267150879,0.01,0.0,0.0,0.0,0.01,0.0,0.0,0.0,0.01,-0.015469642356038094,0.03516998142004013,0.018020033836364746,0.01,0.0,0.0,0.0,0.01,0.0,0.0,0.0,0.01,-0.11158756682872771,-9.742727270665764,-0.624484189979732,0.01,0.0,0.0,0.0,0.01,0.0,0.0,0.0,0.01
1700026235.9396715,26647,1700026235,920032512,gx5_link,0.6797960996627808,0.11959414184093475,0.15627896785736084,0.7065064907073975,0.01,0.0,0.0,0.0,0.01,0.0,0.0,0.0,0.01,-0.018617914989590645,0.01745387353003025,0.026779904961586,0.01,0.0,0.0,0.0,0.01,0.0,0.0,0.0,0.01,-0.13460046762032435,-9.750835173797606,-0.6510048979628831,0.01,0.0,0.0,0.0,0.01,0.0,0.0,0.0,0.01
1700026235.9450607,26648,1700026235,930046976,gx5_link,0.6797384023666382,0.11945216357707977,0.1563558131456375,0.7065690755844116,0.01,0.0,0.0,0.0,0.01,0.0,0.0,0.0,0.01,-0.018325412645936012,0.0007888588588684797,0.03494885191321373,0.01,0.0,0.0,0.0,0.01,0.0,0.0,0.0,0.01,-0.16436395691698416,-9.738755444425344,-0.5994647534050047,0.01,0.0,0.0,0.0,0.01,0.0,0.0,0.0,0.01
1700026235.9589643,26649,1700026235,940064256,gx5_link,0.6796871423721313,0.11926661431789398,0.156429260969162,0.7066333889961243,0.01,0.0,0.0,0.0,0.01,0.0,0.0,0.0,0.01,-0.020322304219007492,-0.00823011714965105,0.03849568963050842,0.01,0.0,0.0,0.0,0.01,0.0,0.0,0.0,0.01,-0.20462080144360661,-9.686865098190307,-0.554770310023427,0.01,0.0,0.0,0.0,0.01,0.0,0.0,0.0,0.01
1700026235.9693604,26650,1700026235,950082048,gx5_link,0.6796533465385437,0.1190536767244339,0.1564960777759552,0.7066870331764221,0.01,0.0,0.0,0.0,0.01,0.0,0.0,0.0,0.01,-0.017086120322346687,-0.014075356535613537,0.04173184931278229,0.01,0.0,0.0,0.0,0.01,0.0,0.0,0.0,0.01,-0.26178751717898996,-9.673026542451977,-0.5617785813502967,0.01,0.0,0.0,0.0,0.01,0.0,0.0,0.0,0.01
1700026235.9760401,26651,1700026235,960096768,gx5_link,0.6796392798423767,0.11879638582468033,0.15657305717468262,0.7067268490791321,0.01,0.0,0.0,0.0,0.01,0.0,0.0,0.0,0.01,-0.013395274989306927,-0.018141603097319603,0.04752878472208977,0.01,0.0,0.0,0.0,0.01,0.0,0.0,0.0,0.01,-0.31148554100152104,-9.674178635096549,-0.5429961394689977,0.01,0.0,0.0,0.0,0.01,0.0,0.0,0.0,0.01
1700026235.9881258,26652,1700026235,970113280,gx5_link,0.6796694397926331,0.11854090541601181,0.15667220950126648,0.7067186832427979,0.01,0.0,0.0,0.0,0.01,0.0,0.0,0.0,0.01,-0.004514558706432581,-0.017538607120513916,0.052407972514629364,0.01,0.0,0.0,0.0,0.01,0.0,0.0,0.0,0.01,-0.33507319120746104,-9.639967737936972,-0.5170265260299668,0.01,0.0,0.0,0.0,0.01,0.0,0.0,0.0,0.01
1700026235.9993386,26653,1700026235,980131840,gx5_link,0.6797253489494324,0.11830389499664307,0.15675346553325653,0.7066866159439087,0.01,0.0,0.0,0.0,0.01,0.0,0.0,0.0,0.01,0.003944297321140766,-0.017748888581991196,0.04842767119407654,0.01,0.0,0.0,0.0,0.01,0.0,0.0,0.0,0.01,-0.3531654223348945,-9.604465631923079,-0.5369073576072231,0.01,0.0,0.0,0.0,0.01,0.0,0.0,0.0,0.01
1700026236.0049658,26654,1700026235,990145536,gx5_link,0.6798110604286194,0.11808508634567261,0.15677383542060852,0.7066363096237183,0.01,0.0,0.0,0.0,0.01,0.0,0.0,0.0,0.01,0.014259811490774155,-0.023215431720018387,0.03919997811317444,0.01,0.0,0.0,0.0,0.01,0.0,0.0,0.0,0.01,-0.37471301808059215,-9.617262569653988,-0.5845878675948828,0.01,0.0,0.0,0.0,0.01,0.0,0.0,0.0,0.01
1700026236.0202873,26655,1700026236,162560,gx5_link,0.679912805557251,0.11786594986915588,0.15672223269939423,0.7065863609313965,0.01,0.0,0.0,0.0,0.01,0.0,0.0,0.0,0.01,0.02080509066581726,-0.03223028779029846,0.029537474736571312,0.01,0.0,0.0,0.0,0.01,0.0,0.0,0.0,0.01,-0.42924445340894163,-9.677904962143302,-0.6232300252001732,0.01,0.0,0.0,0.0,0.01,0.0,0.0,0.0,0.01
1700026236.0375037,26656,1700026236,10181376,gx5_link,0.6800304651260376,0.11765430122613907,0.15661315619945526,0.7065326571464539,0.01,0.0,0.0,0.0,0.01,0.0,0.0,0.0,0.01,0.021616898477077484,-0.03981686010956764,0.018451228737831116,0.01,0.0,0.0,0.0,0.01,0.0,0.0,0.0,0.01,-0.4681295163920149,-9.681917704916,-0.5416962358515709,0.01,0.0,0.0,0.0,0.01,0.0,0.0,0.0,0.01
1700026236.0375316,26657,1700026236,20195840,gx5_link,0.6801354885101318,0.11752661317586899,0.1564832478761673,0.7064815759658813,0.01,0.0,0.0,0.0,0.01,0.0,0.0,0.0,0.01,0.01856653206050396,-0.0346163809299469,0.004270459059625864,0.01,0.0,0.0,0.0,0.01,0.0,0.0,0.0,0.01,-0.48103444454204286,-9.681515553855895,-0.38538836054764686,0.01,0.0,0.0,0.0,0.01,0.0,0.0,0.0,0.01
1700026236.046807,26658,1700026236,30211584,gx5_link,0.6801994442939758,0.1174684464931488,0.15635628998279572,0.7064579129219055,0.01,0.0,0.0,0.0,0.01,0.0,0.0,0.0,0.01,0.011301158927381039,-0.025195874273777008,-0.006095547694712877,0.01,0.0,0.0,0.0,0.01,0.0,0.0,0.0,0.01,-0.4892040877984836,-9.741249014806748,-0.3892252352967858,0.01,0.0,0.0,0.0,0.01,0.0,0.0,0.0,0.01
1700026236.0592804,26659,1700026236,40229120,gx5_link,0.6802324056625366,0.11736840754747391,0.15626166760921478,0.706463634967804,0.01,0.0,0.0,0.0,0.01,0.0,0.0,0.0,0.01,0.005727334879338741,-0.02411101572215557,0.00013669754844158888,0.01,0.0,0.0,0.0,0.01,0.0,0.0,0.0,0.01,-0.5129002764128148,-9.848802211552858,-0.4832600847022608,0.01,0.0,0.0,0.0,0.01,0.0,0.0,0.0,0.01
1700026236.0659418,26660,1700026236,50243840,gx5_link,0.6803004145622253,0.1171848401427269,0.15621860325336456,0.7064381241798401,0.01,0.0,0.0,0.0,0.01,0.0,0.0,0.0,0.01,0.008959351107478142,-0.027602406218647957,0.017497174441814423,0.01,0.0,0.0,0.0,0.01,0.0,0.0,0.0,0.01,-0.529814768997766,-9.890535905432701,-0.47625002327710386,0.01,0.0,0.0,0.0,0.01,0.0,0.0,0.0,0.01
1700026236.077816,26661,1700026236,60260352,gx5_link,0.6804011464118958,0.11694461852312088,0.15625052154064178,0.7063738703727722,0.01,0.0,0.0,0.0,0.01,0.0,0.0,0.0,0.01,0.012096337042748928,-0.027657128870487213,0.03569367900490761,0.01,0.0,0.0,0.0,0.01,0.0,0.0,0.0,0.01,-0.5368677197165787,-9.82542951927185,-0.41667880368325855,0.01,0.0,0.0,0.0,0.01,0.0,0.0,0.0,0.01
1700026236.0936403,26662,1700026236,70279680,gx5_link,0.6804966330528259,0.11673596501350403,0.1563022881746292,0.7063049674034119,0.01,0.0,0.0,0.0,0.01,0.0,0.0,0.0,0.01,0.012221725657582283,-0.02196698822081089,0.0355723537504673,0.01,0.0,0.0,0.0,0.01,0.0,0.0,0.0,0.01,-0.5538880107635632,-9.77182710842192,-0.3680432579930871,0.01,0.0,0.0,0.0,0.01,0.0,0.0,0.0,0.01
1700026236.0956748,26663,1700026236,80293120,gx5_link,0.6805799007415771,0.11657018214464188,0.15635697543621063,0.7062399387359619,0.01,0.0,0.0,0.0,0.01,0.0,0.0,0.0,0.01,0.010979660786688328,-0.015580739825963974,0.030997533351182938,0.01,0.0,0.0,0.0,0.01,0.0,0.0,0.0,0.01,-0.5828141359206289,-9.805140179958938,-0.3654699734389782,0.01,0.0,0.0,0.0,0.01,0.0,0.0,0.0,0.01
1700026236.110257,26664,1700026236,90310144,gx5_link,0.6806350350379944,0.11645220220088959,0.15643319487571716,0.7061894536018372,0.01,0.0,0.0,0.0,0.01,0.0,0.0,0.0,0.01,0.0064519974403083324,-0.00548942107707262,0.02576952613890171,0.01,0.0,0.0,0.0,0.01,0.0,0.0,0.0,0.01,-0.5983433116270229,-9.863133519244194,-0.3759895408224314,0.01,0.0,0.0,0.0,0.01,0.0,0.0,0.0,0.01
1700026236.1194375,26665,1700026236,100328192,gx5_link,0.680645227432251,0.11636792123317719,0.15655189752578735,0.7061672210693359,0.01,0.0,0.0,0.0,0.01,0.0,0.0,0.0,0.01,-0.0012860675342381,0.005879111588001251,0.025576606392860413,0.01,0.0,0.0,0.0,0.01,0.0,0.0,0.0,0.01,-0.6031298883164301,-9.89551720097661,-0.41272327099051326,0.01,0.0,0.0,0.0,0.01,0.0,0.0,0.0,0.01
1700026236.124801,26666,1700026236,110342144,gx5_link,0.6806280612945557,0.11629188805818558,0.15669114887714386,0.7061653733253479,0.01,0.0,0.0,0.0,0.01,0.0,0.0,0.0,0.01,-0.006207523867487907,0.010706059634685516,0.026086892932653427,0.01,0.0,0.0,0.0,0.01,0.0,0.0,0.0,0.01,-0.6013947716195136,-9.873069222325086,-0.4799963701985776,0.01,0.0,0.0,0.0,0.01,0.0,0.0,0.0,0.01
1700026236.1373932,26667,1700026236,120357888,gx5_link,0.6806012988090515,0.11624801903963089,0.15680420398712158,0.706173300743103,0.01,0.0,0.0,0.0,0.01,0.0,0.0,0.0,0.01,-0.0067857191897928715,0.013090266846120358,0.01876230537891388,0.01,0.0,0.0,0.0,0.01,0.0,0.0,0.0,0.01,-0.5883455761605874,-9.811052618873118,-0.5012085965100675,0.01,0.0,0.0,0.0,0.01,0.0,0.0,0.0,0.01
1700026236.159459,26668,1700026236,130376192,gx5_link,0.6805663704872131,0.11624670773744583,0.15686404705047607,0.7061938643455505,0.01,0.0,0.0,0.0,0.01,0.0,0.0,0.0,0.01,-0.005447317846119404,0.01177684310823679,0.005064015742391348,0.01,0.0,0.0,0.0,0.01,0.0,0.0,0.0,0.01,-0.5658457577239722,-9.719325936812162,-0.5336499632464722,0.01,0.0,0.0,0.0,0.01,0.0,0.0,0.0,0.01
1700026236.1595023,26669,1700026236,140390400,gx5_link,0.680522084236145,0.11630600690841675,0.15681935846805573,0.7062367796897888,0.01,0.0,0.0,0.0,0.01,0.0,0.0,0.0,0.01,-0.005139883141964674,0.007264640647917986,-0.016039881855249405,0.01,0.0,0.0,0.0,0.01,0.0,0.0,0.0,0.01,-0.5400590265711769,-9.675223760235308,-0.5664292201677337,0.01,0.0,0.0,0.0,0.01,0.0,0.0,0.0,0.01
1700026236.1671515,26670,1700026236,150406400,gx5_link,0.6804658770561218,0.1164170652627945,0.1566786766052246,0.7063038945198059,0.01,0.0,0.0,0.0,0.01,0.0,0.0,0.0,0.01,-0.006712628062814474,0.002494138665497303,-0.036157574504613876,0.01,0.0,0.0,0.0,0.01,0.0,0.0,0.0,0.01,-0.5343625684952363,-9.702694535484909,-0.5708388898361474,0.01,0.0,0.0,0.0,0.01,0.0,0.0,0.0,0.01
1700026236.1795487,26671,1700026236,160424192,gx5_link,0.6804156303405762,0.11652471870183945,0.1564847081899643,0.7063775062561035,0.01,0.0,0.0,0.0,0.01,0.0,0.0,0.0,0.01,-0.006516559980809689,-0.004615741316229105,-0.04411036893725395,0.01,0.0,0.0,0.0,0.01,0.0,0.0,0.0,0.01,-0.5308937598735094,-9.785232533439993,-0.5181034345464781,0.01,0.0,0.0,0.0,0.01,0.0,0.0,0.0,0.01
1700026236.1862504,26672,1700026236,170438656,gx5_link,0.6803977489471436,0.11662633717060089,0.15631020069122314,0.7064165472984314,0.01,0.0,0.0,0.0,0.01,0.0,0.0,0.0,0.01,-0.002679764525964856,-0.004890911281108856,-0.04143388196825981,0.01,0.0,0.0,0.0,0.01,0.0,0.0,0.0,0.01,-0.5248957615677267,-9.845228444719314,-0.4256443100251257,0.01,0.0,0.0,0.0,0.01,0.0,0.0,0.0,0.01
1700026236.2108703,26673,1700026236,180455680,gx5_link,0.6804013848304749,0.11675514280796051,0.1562100648880005,0.7064139246940613,0.01,0.0,0.0,0.0,0.01,0.0,0.0,0.0,0.01,0.0020533299539238214,0.005761975888162851,-0.033870816230773926,0.01,0.0,0.0,0.0,0.01,0.0,0.0,0.0,0.01,-0.5143732350422069,-9.841019887113571,-0.36800435075480487,0.01,0.0,0.0,0.0,0.01,0.0,0.0,0.0,0.01
1700026236.2109537,26674,1700026236,190473984,gx5_link,0.6803892254829407,0.1169002577662468,0.1561463475227356,0.7064157724380493,0.01,0.0,0.0,0.0,0.01,0.0,0.0,0.0,0.01,0.0013855722500011325,0.014799915254116058,-0.030869286507368088,0.01,0.0,0.0,0.0,0.01,0.0,0.0,0.0,0.01,-0.5033368407104164,-9.819159937483072,-0.37819808371737595,0.01,0.0,0.0,0.0,0.01,0.0,0.0,0.0,0.01
1700026236.215943,26675,1700026236,200487680,gx5_link,0.6803369522094727,0.11706921458244324,0.15609607100486755,0.7064492106437683,0.01,0.0,0.0,0.0,0.01,0.0,0.0,0.0,0.01,-0.003845815546810627,0.02026578225195408,-0.03211366385221481,0.01,0.0,0.0,0.0,0.01,0.0,0.0,0.0,0.01,-0.49225602271500973,-9.826505039548874,-0.46361017580404873,0.01,0.0,0.0,0.0,0.01,0.0,0.0,0.0,0.01
1700026236.227306,26676,1700026236,210503424,gx5_link,0.6802487969398499,0.11722535640001297,0.1560371071100235,0.706521213054657,0.01,0.0,0.0,0.0,0.01,0.0,0.0,0.0,0.01,-0.011540835723280907,0.018924729898571968,-0.03414567559957504,0.01,0.0,0.0,0.0,0.01,0.0,0.0,0.0,0.01,-0.46887244371380654,-9.800846282157302,-0.5242772643432021,0.01,0.0,0.0,0.0,0.01,0.0,0.0,0.0,0.01
1700026236.2402022,26677,1700026236,220521984,gx5_link,0.6801572442054749,0.11736199259757996,0.15594182908535004,0.7066076993942261,0.01,0.0,0.0,0.0,0.01,0.0,0.0,0.0,0.01,-0.014615947380661964,0.012954804114997387,-0.0363926887512207,0.01,0.0,0.0,0.0,0.01,0.0,0.0,0.0,0.01,-0.4569918901754543,-9.784778359931707,-0.5355202140977606,0.01,0.0,0.0,0.0,0.01,0.0,0.0,0.0,0.01
1700026236.247224,26678,1700026236,230535936,gx5_link,0.6800643801689148,0.11748472601175308,0.1558203101158142,0.7067034840583801,0.01,0.0,0.0,0.0,0.01,0.0,0.0,0.0,0.01,-0.016795199364423752,0.006793655455112457,-0.03843461722135544,0.01,0.0,0.0,0.0,0.01,0.0,0.0,0.0,0.01,-0.45097843857221304,-9.784745626705885,-0.521358052428253,0.01,0.0,0.0,0.0,0.01,0.0,0.0,0.0,0.01
1700026236.2570915,26679,1700026236,240551680,gx5_link,0.679978609085083,0.11758245527744293,0.1557101607322693,0.706794023513794,0.01,0.0,0.0,0.0,0.01,0.0,0.0,0.0,0.01,-0.016839630901813507,0.004360167309641838,-0.033277444541454315,0.01,0.0,0.0,0.0,0.01,0.0,0.0,0.0,0.01,-0.44615372182950375,-9.808838449954987,-0.5098141834983602,0.01,0.0,0.0,0.0,0.01,0.0,0.0,0.0,0.01
1700026236.2695947,26680,1700026236,251568384,gx5_link,0.6798797249794006,0.11764667183160782,0.15563054382801056,0.7068960070610046,0.01,0.0,0.0,0.0,0.01,0.0,0.0,0.0,0.01,-0.021618157625198364,0.0024053347297012806,-0.026214314624667168,0.01,0.0,0.0,0.0,0.01,0.0,0.0,0.0,0.01,-0.4497880597438663,-9.85127824627757,-0.5095139584427699,0.01,0.0,0.0,0.0,0.01,0.0,0.0,0.0,0.01
1700026236.288131,26681,1700026236,261593088,gx5_link,0.6797776818275452,0.1176646426320076,0.15561379492282867,0.706994891166687,0.01,0.0,0.0,0.0,0.01,0.0,0.0,0.0,0.01,-0.02521383948624134,0.004374594893306494,-0.012677699327468872,0.01,0.0,0.0,0.0,0.01,0.0,0.0,0.0,0.01,-0.45096915928721426,-9.861827697342633,-0.5178302070956677,0.01,0.0,0.0,0.0,0.01,0.0,0.0,0.0,0.01
1700026236.2939227,26682,1700026236,271609600,gx5_link,0.6796703338623047,0.11762023717164993,0.15564851462841034,0.7070977687835693,0.01,0.0,0.0,0.0,0.01,0.0,0.0,0.0,0.01,-0.028708597645163536,0.002755525056272745,0.0014062430709600449,0.01,0.0,0.0,0.0,0.01,0.0,0.0,0.0,0.01,-0.4678151532132178,-9.812330383723973,-0.5160242536522448,0.01,0.0,0.0,0.0,0.01,0.0,0.0,0.0,0.01
1700026236.2997913,26683,1700026236,281626624,gx5_link,0.6795669198036194,0.11752448230981827,0.15569037199020386,0.7072038650512695,0.01,0.0,0.0,0.0,0.01,0.0,0.0,0.0,0.01,-0.030180878937244415,-0.0024318278301507235,0.009127262979745865,0.01,0.0,0.0,0.0,0.01,0.0,0.0,0.0,0.01,-0.504617272442393,-9.740772629466653,-0.551212069552578,0.01,0.0,0.0,0.0,0.01,0.0,0.0,0.0,0.01
1700026236.316278,26684,1700026236,291647488,gx5_link,0.6794569492340088,0.11740745604038239,0.15573625266551971,0.7073188424110413,0.01,0.0,0.0,0.0,0.01,0.0,0.0,0.0,0.01,-0.032308124005794525,-0.006958466954529285,0.010797333903610706,0.01,0.0,0.0,0.0,0.01,0.0,0.0,0.0,0.01,-0.5611025817848742,-9.661176530182361,-0.5544313238600269,0.01,0.0,0.0,0.0,0.01,0.0,0.0,0.0,0.01
1700026236.3184597,26685,1700026236,301662720,gx5_link,0.6793468594551086,0.11732977628707886,0.15574423968791962,0.7074357271194458,0.01,0.0,0.0,0.0,0.01,0.0,0.0,0.0,0.01,-0.032599739730358124,-0.00723852077499032,0.00013190839672461152,0.01,0.0,0.0,0.0,0.01,0.0,0.0,0.0,0.01,-0.6050124506600201,-9.569105564728378,-0.515619508776255,0.01,0.0,0.0,0.0,0.01,0.0,0.0,0.0,0.01
1700026236.3294525,26686,1700026236,311679744,gx5_link,0.6792192459106445,0.11735861003398895,0.15569035708904266,0.707565426826477,0.01,0.0,0.0,0.0,0.01,0.0,0.0,0.0,0.01,-0.0346497967839241,0.0001248930930159986,-0.023404192179441452,0.01,0.0,0.0,0.0,0.01,0.0,0.0,0.0,0.01,-0.6336517582323402,-9.549151740980149,-0.4670907113961875,0.01,0.0,0.0,0.0,0.01,0.0,0.0,0.0,0.01
1700026236.3417976,26687,1700026236,321698560,gx5_link,0.679049015045166,0.11748676002025604,0.1556141972541809,0.7077242732048035,0.01,0.0,0.0,0.0,0.01,0.0,0.0,0.0,0.01,-0.03982499986886978,0.011708246544003487,-0.04207250475883484,0.01,0.0,0.0,0.0,0.01,0.0,0.0,0.0,0.01,-0.6444247889202088,-9.626509705948829,-0.4799679112890735,0.01,0.0,0.0,0.0,0.01,0.0,0.0,0.0,0.01
1700026236.347336,26688,1700026236,331712768,gx5_link,0.6788410544395447,0.11769933253526688,0.15552860498428345,0.7079071402549744,0.01,0.0,0.0,0.0,0.01,0.0,0.0,0.0,0.01,-0.044400155544281006,0.021369367837905884,-0.05476158484816551,0.01,0.0,0.0,0.0,0.01,0.0,0.0,0.0,0.01,-0.6295707725290208,-9.70250690395832,-0.49941670812461525,0.01,0.0,0.0,0.0,0.01,0.0,0.0,0.0,0.01
1700026236.359234,26689,1700026236,341729024,gx5_link,0.6786261796951294,0.11796870827674866,0.15545198321342468,0.7080851793289185,0.01,0.0,0.0,0.0,0.01,0.0,0.0,0.0,0.01,-0.04564468935132027,0.030866393819451332,-0.06215060129761696,0.01,0.0,0.0,0.0,0.01,0.0,0.0,0.0,0.01,-0.5854414887495338,-9.76235668476522,-0.45560295656770466,0.01,0.0,0.0,0.0,0.01,0.0,0.0,0.0,0.01
1700026236.3767812,26690,1700026236,351753472,gx5_link,0.6784095764160156,0.1182774156332016,0.15540042519569397,0.708252489566803,0.01,0.0,0.0,0.0,0.01,0.0,0.0,0.0,0.01,-0.04255915805697441,0.038643598556518555,-0.062422093003988266,0.01,0.0,0.0,0.0,0.01,0.0,0.0,0.0,0.01,-0.546352756420523,-9.797911982271074,-0.5085656447419896,0.01,0.0,0.0,0.0,0.01,0.0,0.0,0.0,0.01
1700026236.3823328,26691,1700026236,361769472,gx5_link,0.6782076358795166,0.11862342059612274,0.15537317097187042,0.7083939909934998,0.01,0.0,0.0,0.0,0.01,0.0,0.0,0.0,0.01,-0.037064749747514725,0.04840642213821411,-0.06270670890808105,0.01,0.0,0.0,0.0,0.01,0.0,0.0,0.0,0.01,-0.5161687036242336,-9.79762381297946,-0.49034364975504574,0.01,0.0,0.0,0.0,0.01,0.0,0.0,0.0,0.01
1700026236.3893652,26692,1700026236,371785728,gx5_link,0.6780679821968079,0.1189645454287529,0.15538036823272705,0.7084689140319824,0.01,0.0,0.0,0.0,0.01,0.0,0.0,0.0,0.01,-0.023019514977931976,0.05430682748556137,-0.05213665962219238,0.01,0.0,0.0,0.0,0.01,0.0,0.0,0.0,0.01,-0.4645077822308987,-9.826672212809324,-0.45071591517850756,0.01,0.0,0.0,0.0,0.01,0.0,0.0,0.0,0.01
1700026236.4011512,26693,1700026236,381803776,gx5_link,0.6779875755310059,0.11929506063461304,0.15542665123939514,0.7084801197052002,0.01,0.0,0.0,0.0,0.01,0.0,0.0,0.0,0.01,-0.005091730505228043,0.05808323249220848,-0.04153289273381233,0.01,0.0,0.0,0.0,0.01,0.0,0.0,0.0,0.01,-0.41253173047378655,-9.780113875252008,-0.5354031270567328,0.01,0.0,0.0,0.0,0.01,0.0,0.0,0.0,0.01
1700026236.4078732,26694,1700026236,391818752,gx5_link,0.6779462099075317,0.11960053443908691,0.15543733537197113,0.7084658741950989,0.01,0.0,0.0,0.0,0.01,0.0,0.0,0.0,0.01,0.005754397250711918,0.05208609998226166,-0.041181519627571106,0.01,0.0,0.0,0.0,0.01,0.0,0.0,0.0,0.01,-0.37321364636830984,-9.715797178164124,-0.5628473065603524,0.01,0.0,0.0,0.0,0.01,0.0,0.0,0.0,0.01
1700026236.4208221,26695,1700026236,401836288,gx5_link,0.6779444217681885,0.11991000175476074,0.15542246401309967,0.7084185481071472,0.01,0.0,0.0,0.0,0.01,0.0,0.0,0.0,0.01,0.015112354420125484,0.04509902372956276,-0.040117114782333374,0.01,0.0,0.0,0.0,0.01,0.0,0.0,0.0,0.01,-0.35143125548604875,-9.745489721116423,-0.5605692786257713,0.01,0.0,0.0,0.0,0.01,0.0,0.0,0.0,0.01
1700026236.4313216,26696,1700026236,411854592,gx5_link,0.677962064743042,0.12020908296108246,0.1553584337234497,0.7083650231361389,0.01,0.0,0.0,0.0,0.01,0.0,0.0,0.0,0.01,0.021231472492218018,0.03772372379899025,-0.044419340789318085,0.01,0.0,0.0,0.0,0.01,0.0,0.0,0.0,0.01,-0.2961890050072223,-9.730108612111211,-0.5655301524361596,0.01,0.0,0.0,0.0,0.01,0.0,0.0,0.0,0.01
1700026236.4374816,26697,1700026236,421869568,gx5_link,0.6779682636260986,0.12049809098243713,0.15523505210876465,0.7083370685577393,0.01,0.0,0.0,0.0,0.01,0.0,0.0,0.0,0.01,0.0187819916754961,0.028353964909911156,-0.04933210834860802,0.01,0.0,0.0,0.0,0.01,0.0,0.0,0.0,0.01,-0.27153772589145225,-9.747287710449099,-0.5617070870166644,0.01,0.0,0.0,0.0,0.01,0.0,0.0,0.0,0.01
1700026236.4491692,26698,1700026236,431886080,gx5_link,0.677978515625,0.12078232318162918,0.1550341248512268,0.7083228230476379,0.01,0.0,0.0,0.0,0.01,0.0,0.0,0.0,0.01,0.01936781220138073,0.018061563372612,-0.06044068560004234,0.01,0.0,0.0,0.0,0.01,0.0,0.0,0.0,0.01,-0.2506527953055687,-9.737705643111466,-0.5857702092472463,0.01,0.0,0.0,0.0,0.01,0.0,0.0,0.0,0.01
1700026236.46309,26699,1700026236,441905920,gx5_link,0.6779611706733704,0.12104600667953491,0.15475964546203613,0.7083544135093689,0.01,0.0,0.0,0.0,0.01,0.0,0.0,0.0,0.01,0.010687107220292091,0.00764892715960741,-0.06952836364507675,0.01,0.0,0.0,0.0,0.01,0.0,0.0,0.0,0.01,-0.25125010361159217,-9.779305481478572,-0.5624767562149092,0.01,0.0,0.0,0.0,0.01,0.0,0.0,0.0,0.01
1700026236.469756,26700,1700026236,451921664,gx5_link,0.6779245734214783,0.12129117548465729,0.15444634854793549,0.7084158658981323,0.01,0.0,0.0,0.0,0.01,0.0,0.0,0.0,0.01,0.003968881443142891,-0.0008721021586097777,-0.07470162957906723,0.01,0.0,0.0,0.0,0.01,0.0,0.0,0.0,0.01,-0.24862052229298276,-9.806254278680681,-0.5458212433597073,0.01,0.0,0.0,0.0,0.01,0.0,0.0,0.0,0.01
1700026236.4801223,26701,1700026236,461938688,gx5_link,0.6778655052185059,0.12151837348937988,0.15409962832927704,0.708509087562561,0.01,0.0,0.0,0.0,0.01,0.0,0.0,0.0,0.01,-0.001921332674100995,-0.00916429702192545,-0.07879525423049927,0.01,0.0,0.0,0.0,0.01,0.0,0.0,0.0,0.01,-0.24222464724341405,-9.780328979307413,-0.590375693748705,0.01,0.0,0.0,0.0,0.01,0.0,0.0,0.0,0.01
1700026236.4930632,26702,1700026236,471956992,gx5_link,0.6777859926223755,0.1217314824461937,0.15372009575366974,0.7086309790611267,0.01,0.0,0.0,0.0,0.01,0.0,0.0,0.0,0.01,-0.006444241851568222,-0.016293376684188843,-0.08336761593818665,0.01,0.0,0.0,0.0,0.01,0.0,0.0,0.0,0.01,-0.2417831688199192,-9.748898652777076,-0.6153101189211011,0.01,0.0,0.0,0.0,0.01,0.0,0.0,0.0,0.01
1700026236.4972143,26703,1700026236,481970688,gx5_link,0.6777311563491821,0.12190013378858566,0.15330582857131958,0.7087440490722656,0.01,0.0,0.0,0.0,0.01,0.0,0.0,0.0,0.01,-0.0026658757124096155,-0.026383452117443085,-0.0821397677063942,0.01,0.0,0.0,0.0,0.01,0.0,0.0,0.0,0.01,-0.2529705524623394,-9.781422035241127,-0.616858225145936,0.01,0.0,0.0,0.0,0.01,0.0,0.0,0.0,0.01
1700026236.5091403,26704,1700026236,491986432,gx5_link,0.6777207255363464,0.12202342599630356,0.15292847156524658,0.7088143825531006,0.01,0.0,0.0,0.0,0.01,0.0,0.0,0.0,0.01,0.004167937207967043,-0.030183948576450348,-0.07099825143814087,0.01,0.0,0.0,0.0,0.01,0.0,0.0,0.0,0.01,-0.2859672880591824,-9.844196179062127,-0.5850587365096435,0.01,0.0,0.0,0.0,0.01,0.0,0.0,0.0,0.01
1700026236.5222523,26705,1700026236,502005248,gx5_link,0.6777417659759521,0.12211428582668304,0.15264736115932465,0.7088392972946167,0.01,0.0,0.0,0.0,0.01,0.0,0.0,0.0,0.01,0.008711800910532475,-0.02317362278699875,-0.0537368468940258,0.01,0.0,0.0,0.0,0.01,0.0,0.0,0.0,0.01,-0.3064841159850359,-9.836852246040106,-0.5090417012885212,0.01,0.0,0.0,0.0,0.01,0.0,0.0,0.0,0.01
1700026236.529034,26706,1700026236,512020736,gx5_link,0.6777860522270203,0.12221194803714752,0.15247157216072083,0.7088178396224976,0.01,0.0,0.0,0.0,0.01,0.0,0.0,0.0,0.01,0.011777293868362904,-0.008905584923923016,-0.039557088166475296,0.01,0.0,0.0,0.0,0.01,0.0,0.0,0.0,0.01,-0.3221514215204865,-9.805684954360126,-0.4153619489310309,0.01,0.0,0.0,0.0,0.01,0.0,0.0,0.0,0.01
1700026236.540997,26707,1700026236,522036992,gx5_link,0.6778243184089661,0.12234126776456833,0.1523875743150711,0.7087770700454712,0.01,0.0,0.0,0.0,0.01,0.0,0.0,0.0,0.01,0.013546905480325222,0.0075103119015693665,-0.02875274047255516,0.01,0.0,0.0,0.0,0.01,0.0,0.0,0.0,0.01,-0.3380384707538411,-9.807477682995795,-0.4065560170650482,0.01,0.0,0.0,0.0,0.01,0.0,0.0,0.0,0.01
1700026236.5516555,26708,1700026236,532056064,gx5_link,0.677855372428894,0.1225019097328186,0.1524076610803604,0.7087152004241943,0.01,0.0,0.0,0.0,0.01,0.0,0.0,0.0,0.01,0.013762498274445534,0.02490042895078659,-0.01746583729982376,0.01,0.0,0.0,0.0,0.01,0.0,0.0,0.0,0.01,-0.33988322183769193,-9.834841490739583,-0.41927649202626194,0.01,0.0,0.0,0.0,0.01,0.0,0.0,0.0,0.01
1700026236.559995,26709,1700026236,542071808,gx5_link,0.6778755784034729,0.12266278266906738,0.1525133103132248,0.7086453437805176,0.01,0.0,0.0,0.0,0.01,0.0,0.0,0.0,0.01,0.013098443858325481,0.037716418504714966,-0.005761684849858284,0.01,0.0,0.0,0.0,0.01,0.0,0.0,0.0,0.01,-0.321206176559627,-9.836437235498428,-0.4723655099939555,0.01,0.0,0.0,0.0,0.01,0.0,0.0,0.0,0.01
1700026236.5710402,26710,1700026236,552089088,gx5_link,0.6778677105903625,0.1227957159280777,0.15267612040042877,0.7085948586463928,0.01,0.0,0.0,0.0,0.01,0.0,0.0,0.0,0.01,0.009203676134347916,0.044941406697034836,0.005583296995609999,0.01,0.0,0.0,0.0,0.01,0.0,0.0,0.0,0.01,-0.3042970908021554,-9.812194774645567,-0.5568106932772323,0.01,0.0,0.0,0.0,0.01,0.0,0.0,0.0,0.01
1700026236.581292,26711,1700026236,562106880,gx5_link,0.6778504848480225,0.12288902699947357,0.15285901725292206,0.7085556983947754,0.01,0.0,0.0,0.0,0.01,0.0,0.0,0.0,0.01,0.006003349553793669,0.044686514884233475,0.014574146829545498,0.01,0.0,0.0,0.0,0.01,0.0,0.0,0.0,0.01,-0.2778731759906746,-9.76903075570166,-0.606337707914412,0.01,0.0,0.0,0.0,0.01,0.0,0.0,0.0,0.01
1700026236.5925808,26712,1700026236,572121344,gx5_link,0.6778337359428406,0.12293832749128342,0.15302008390426636,0.708528459072113,0.01,0.0,0.0,0.0,0.01,0.0,0.0,0.0,0.01,0.005153586156666279,0.037045449018478394,0.018376514315605164,0.01,0.0,0.0,0.0,0.01,0.0,0.0,0.0,0.01,-0.2572023265468888,-9.721793203708529,-0.6617949528507888,0.01,0.0,0.0,0.0,0.01,0.0,0.0,0.0,0.01
1700026236.5993557,26713,1700026236,582137856,gx5_link,0.6778073906898499,0.12295972555875778,0.15315252542495728,0.7085213661193848,0.01,0.0,0.0,0.0,0.01,0.0,0.0,0.0,0.01,0.0023409028071910143,0.030202798545360565,0.018246624618768692,0.01,0.0,0.0,0.0,0.01,0.0,0.0,0.0,0.01,-0.24858665655599907,-9.690147773122787,-0.7038582440111786,0.01,0.0,0.0,0.0,0.01,0.0,0.0,0.0,0.01
1700026236.6117337,26714,1700026236,592156160,gx5_link,0.6777819991111755,0.12293995916843414,0.15325456857681274,0.7085269689559937,0.01,0.0,0.0,0.0,0.01,0.0,0.0,0.0,0.01,0.0018683744128793478,0.01943252608180046,0.0198025181889534,0.01,0.0,0.0,0.0,0.01,0.0,0.0,0.0,0.01,-0.2565250666061416,-9.694940268096326,-0.7051445574946701,0.01,0.0,0.0,0.0,0.01,0.0,0.0,0.0,0.01
1700026236.6174116,26715,1700026236,602169856,gx5_link,0.6777995824813843,0.12285979837179184,0.1533440500497818,0.7085046172142029,0.01,0.0,0.0,0.0,0.01,0.0,0.0,0.0,0.01,0.006743782199919224,0.008294081315398216,0.02519530989229679,0.01,0.0,0.0,0.0,0.01,0.0,0.0,0.0,0.01,-0.2742270928395912,-9.695258248004317,-0.6987799908988177,0.01,0.0,0.0,0.0,0.01,0.0,0.0,0.0,0.01
1700026236.6303499,26716,1700026236,612186368,gx5_link,0.6778438091278076,0.12273477762937546,0.15342523157596588,0.7084664106369019,0.01,0.0,0.0,0.0,0.01,0.0,0.0,0.0,0.01,0.012061990797519684,0.0009109656093642116,0.030086137354373932,0.01,0.0,0.0,0.0,0.01,0.0,0.0,0.0,0.01,-0.3191063912687823,-9.707257897877692,-0.7090764901161194,0.01,0.0,0.0,0.0,0.01,0.0,0.0,0.0,0.01
1700026236.6413639,26717,1700026236,622204928,gx5_link,0.6779167056083679,0.12258691340684891,0.15351535379886627,0.7084027528762817,0.01,0.0,0.0,0.0,0.01,0.0,0.0,0.0,0.01,0.0164383165538311,-0.0020433326717466116,0.03525135666131973,0.01,0.0,0.0,0.0,0.01,0.0,0.0,0.0,0.01,-0.3769403387412429,-9.710347680586576,-0.6527322332121431,0.01,0.0,0.0,0.0,0.01,0.0,0.0,0.0,0.01
1700026236.647199,26718,1700026236,632218624,gx5_link,0.6780058145523071,0.12246682494878769,0.15364933013916016,0.7083092927932739,0.01,0.0,0.0,0.0,0.01,0.0,0.0,0.0,0.01,0.02013704553246498,0.005412740632891655,0.035242196172475815,0.01,0.0,0.0,0.0,0.01,0.0,0.0,0.0,0.01,-0.43037217879723755,-9.715461078077555,-0.5586189117429777,0.01,0.0,0.0,0.0,0.01,0.0,0.0,0.0,0.01
1700026236.6592863,26719,1700026236,642234112,gx5_link,0.6781070828437805,0.12241196632385254,0.1538575440645218,0.7081764936447144,0.01,0.0,0.0,0.0,0.01,0.0,0.0,0.0,0.01,0.023487696424126625,0.02184092439711094,0.03925362601876259,0.01,0.0,0.0,0.0,0.01,0.0,0.0,0.0,0.01,-0.47536907572410997,-9.761522572028637,-0.47495143483392893,0.01,0.0,0.0,0.0,0.01,0.0,0.0,0.0,0.01
1700026236.6721828,26720,1700026236,652252928,gx5_link,0.6781851649284363,0.12241055816411972,0.15416160225868225,0.7080358266830444,0.01,0.0,0.0,0.0,0.01,0.0,0.0,0.0,0.01,0.020092152059078217,0.04213128983974457,0.044589199125766754,0.01,0.0,0.0,0.0,0.01,0.0,0.0,0.0,0.01,-0.5015197813510894,-9.840600200396775,-0.4228093788601458,0.01,0.0,0.0,0.0,0.01,0.0,0.0,0.0,0.01
1700026236.6778252,26721,1700026236,662267136,gx5_link,0.678220272064209,0.12242919206619263,0.15457016229629517,0.707909882068634,0.01,0.0,0.0,0.0,0.01,0.0,0.0,0.0,0.01,0.00930190272629261,0.06042929366230965,0.054351143538951874,0.01,0.0,0.0,0.0,0.01,0.0,0.0,0.0,0.01,-0.5132574558200315,-9.905157135981321,-0.3772957645827904,0.01,0.0,0.0,0.0,0.01,0.0,0.0,0.0,0.01
1700026236.6946337,26722,1700026236,672283136,gx5_link,0.6782227158546448,0.12245527654886246,0.1550648808479309,0.7077949047088623,0.01,0.0,0.0,0.0,0.01,0.0,0.0,0.0,0.01,0.00030811468604952097,0.07417666167020798,0.06309977173805237,0.01,0.0,0.0,0.0,0.01,0.0,0.0,0.0,0.01,-0.4959480821659788,-9.896107568085194,-0.369287047509104,0.01,0.0,0.0,0.0,0.01,0.0,0.0,0.0,0.01
1700026236.700612,26723,1700026236,682300672,gx5_link,0.678146243095398,0.12252011150121689,0.15557824075222015,0.707744300365448,0.01,0.0,0.0,0.0,0.01,0.0,0.0,0.0,0.01,-0.015022901818156242,0.08415401726961136,0.059657271951436996,0.01,0.0,0.0,0.0,0.01,0.0,0.0,0.0,0.01,-0.47172881952561435,-9.834469734817743,-0.4117143862089142,0.01,0.0,0.0,0.0,0.01,0.0,0.0,0.0,0.01
1700026236.7080743,26724,1700026236,692315392,gx5_link,0.6779950857162476,0.12264537811279297,0.15607629716396332,0.7077577114105225,0.01,0.0,0.0,0.0,0.01,0.0,0.0,0.0,0.01,-0.03034595400094986,0.09359285980463028,0.04805488511919975,0.01,0.0,0.0,0.0,0.01,0.0,0.0,0.0,0.01,-0.4493334113115445,-9.82652958946824,-0.4112135970799252,0.01,0.0,0.0,0.0,0.01,0.0,0.0,0.0,0.01
1700026236.7199898,26725,1700026236,702331904,gx5_link,0.6778022050857544,0.12283501029014587,0.15653912723064423,0.7078073620796204,0.01,0.0,0.0,0.0,0.01,0.0,0.0,0.0,0.01,-0.039949845522642136,0.09679091721773148,0.031560398638248444,0.01,0.0,0.0,0.0,0.01,0.0,0.0,0.0,0.01,-0.47087070485893634,-9.79458020749986,-0.46402613619379696,0.01,0.0,0.0,0.0,0.01,0.0,0.0,0.0,0.01
1700026236.7369468,26726,1700026236,712349696,gx5_link,0.6775554418563843,0.12305240333080292,0.1568756252527237,0.7079313397407532,0.01,0.0,0.0,0.0,0.01,0.0,0.0,0.0,0.01,-0.050498444586992264,0.08969033509492874,0.00944045651704073,0.01,0.0,0.0,0.0,0.01,0.0,0.0,0.0,0.01,-0.42175749518703665,-9.73480875262618,-0.5058388866592198,0.01,0.0,0.0,0.0,0.01,0.0,0.0,0.0,0.01
1700026236.7391214,26727,1700026236,722364160,gx5_link,0.6772883534431458,0.12330933660268784,0.15709754824638367,0.708092987537384,0.01,0.0,0.0,0.0,0.01,0.0,0.0,0.0,0.01,-0.05350155755877495,0.07931703329086304,-0.011496085673570633,0.01,0.0,0.0,0.0,0.01,0.0,0.0,0.0,0.01,-0.3952282020386308,-9.748065709084273,-0.5321650219183415,0.01,0.0,0.0,0.0,0.01,0.0,0.0,0.0,0.01
1700026236.7493865,26728,1700026236,732380416,gx5_link,0.6770481467247009,0.1235494315624237,0.15722820162773132,0.7082517743110657,0.01,0.0,0.0,0.0,0.01,0.0,0.0,0.0,0.01,-0.04555564373731613,0.06407204270362854,-0.021676482632756233,0.01,0.0,0.0,0.0,0.01,0.0,0.0,0.0,0.01,-0.3573926846411079,-9.714221891671418,-0.591350931989029,0.01,0.0,0.0,0.0,0.01,0.0,0.0,0.0,0.01
1700026236.7617595,26729,1700026236,742398720,gx5_link,0.6769008636474609,0.1237485259771347,0.15729647874832153,0.7083426713943481,0.01,0.0,0.0,0.0,0.01,0.0,0.0,0.0,0.01,-0.02745344303548336,0.04950837045907974,-0.02115633338689804,0.01,0.0,0.0,0.0,0.01,0.0,0.0,0.0,0.01,-0.34000136832464484,-9.720642864629626,-0.5702980609577148,0.01,0.0,0.0,0.0,0.01,0.0,0.0,0.0,0.01
1700026236.7673924,26730,1700026236,752412416,gx5_link,0.6768613457679749,0.12388255447149277,0.15733569860458374,0.7083483338356018,0.01,0.0,0.0,0.0,0.01,0.0,0.0,0.0,0.01,-0.004136674106121063,0.03571918234229088,-0.012702427804470062,0.01,0.0,0.0,0.0,0.01,0.0,0.0,0.0,0.01,-0.32974764880314467,-9.737779292869567,-0.5693913579089567,0.01,0.0,0.0,0.0,0.01,0.0,0.0,0.0,0.01
1700026236.7801554,26731,1700026236,762429184,gx5_link,0.6769202351570129,0.12397260218858719,0.15736082196235657,0.7082706689834595,0.01,0.0,0.0,0.0,0.01,0.0,0.0,0.0,0.01,0.020378081128001213,0.025532975792884827,-0.005086563061922789,0.01,0.0,0.0,0.0,0.01,0.0,0.0,0.0,0.01,-0.33470264086201784,-9.733571319785714,-0.5929086828250437,0.01,0.0,0.0,0.0,0.01,0.0,0.0,0.0,0.01
1700026236.795832,26732,1700026236,775446528,gx5_link,0.6770421862602234,0.12403697520494461,0.15734052658081055,0.7081474661827087,0.01,0.0,0.0,0.0,0.01,0.0,0.0,0.0,0.01,0.03516467288136482,0.013623158447444439,-0.004941532388329506,0.01,0.0,0.0,0.0,0.01,0.0,0.0,0.0,0.01,-0.3508904631402343,-9.725584412685036,-0.5585602768909186,0.01,0.0,0.0,0.0,0.01,0.0,0.0,0.0,0.01
1700026236.8053913,26733,1700026236,785463808,gx5_link,0.6771928071975708,0.12411205470561981,0.15726253390312195,0.7080075144767761,0.01,0.0,0.0,0.0,0.01,0.0,0.0,0.0,0.01,0.04218088462948799,0.006339294370263815,-0.013696112670004368,0.01,0.0,0.0,0.0,0.01,0.0,0.0,0.0,0.01,-0.3762159699894488,-9.707608611011505,-0.5260466121032834,0.01,0.0,0.0,0.0,0.01,0.0,0.0,0.0,0.01
1700026236.811411,26734,1700026236,795478016,gx5_link,0.6773382425308228,0.12426236271858215,0.15708492696285248,0.7078814506530762,0.01,0.0,0.0,0.0,0.01,0.0,0.0,0.0,0.01,0.04493747651576996,0.0034492777194827795,-0.03651125729084015,0.01,0.0,0.0,0.0,0.01,0.0,0.0,0.0,0.01,-0.38325310208462177,-9.652084292188286,-0.4729046949045732,0.01,0.0,0.0,0.0,0.01,0.0,0.0,0.0,0.01
1700026236.8287764,26735,1700026236,805499392,gx5_link,0.6774413585662842,0.12451955676078796,0.1567964106798172,0.7078015208244324,0.01,0.0,0.0,0.0,0.01,0.0,0.0,0.0,0.01,0.03905107080936432,0.0030879273544996977,-0.06820164620876312,0.01,0.0,0.0,0.0,0.01,0.0,0.0,0.0,0.01,-0.3911627792306244,-9.664836806255579,-0.44679567299485207,0.01,0.0,0.0,0.0,0.01,0.0,0.0,0.0,0.01
1700026236.8338752,26736,1700026236,815515648,gx5_link,0.677492082118988,0.12489263713359833,0.1563958078622818,0.707775890827179,0.01,0.0,0.0,0.0,0.01,0.0,0.0,0.0,0.01,0.030842378735542297,0.004971673246473074,-0.1002969741821289,0.01,0.0,0.0,0.0,0.01,0.0,0.0,0.0,0.01,-0.3832358221562579,-9.734855514377355,-0.4236352352250367,0.01,0.0,0.0,0.0,0.01,0.0,0.0,0.0,0.01
1700026236.8433516,26737,1700026236,825529088,gx5_link,0.677469789981842,0.12536315619945526,0.15594182908535004,0.7078142166137695,0.01,0.0,0.0,0.0,0.01,0.0,0.0,0.0,0.01,0.017923353239893913,0.01087940577417612,-0.12592777609825134,0.01,0.0,0.0,0.0,0.01,0.0,0.0,0.0,0.01,-0.36014541741535067,-9.853133518755435,-0.4209134455783292,0.01,0.0,0.0,0.0,0.01,0.0,0.0,0.0,0.01
1700026236.8601508,26738,1700026236,835545856,gx5_link,0.6773957014083862,0.12589019536972046,0.15548279881477356,0.7078925371170044,0.01,0.0,0.0,0.0,0.01,0.0,0.0,0.0,0.01,0.005235027521848679,0.017874445766210556,-0.13668622076511383,0.01,0.0,0.0,0.0,0.01,0.0,0.0,0.0,0.01,-0.3039991673015058,-9.957422745269536,-0.4062509331712499,0.01,0.0,0.0,0.0,0.01,0.0,0.0,0.0,0.01
1700026236.863432,26739,1700026236,845562880,gx5_link,0.6772677898406982,0.12642788887023926,0.15508714318275452,0.7080059051513672,0.01,0.0,0.0,0.0,0.01,0.0,0.0,0.0,0.01,-0.007426687981933355,0.027585679665207863,-0.13076215982437134,0.01,0.0,0.0,0.0,0.01,0.0,0.0,0.0,0.01,-0.23077158013582227,-10.067798013699054,-0.4260289254285395,0.01,0.0,0.0,0.0,0.01,0.0,0.0,0.0,0.01
1700026236.8738544,26740,1700026236,855576320,gx5_link,0.6771010160446167,0.12688980996608734,0.1548130363225937,0.7081427574157715,0.01,0.0,0.0,0.0,0.01,0.0,0.0,0.0,0.01,-0.017950458452105522,0.0351128950715065,-0.10618188977241516,0.01,0.0,0.0,0.0,0.01,0.0,0.0,0.0,0.01,-0.17005316326823083,-10.125929884672164,-0.5000163545181975,0.01,0.0,0.0,0.0,0.01,0.0,0.0,0.0,0.01
1700026236.883807,26741,1700026236,865592320,gx5_link,0.676950991153717,0.12720251083374023,0.15465353429317474,0.7082648873329163,0.01,0.0,0.0,0.0,0.01,0.0,0.0,0.0,0.01,-0.020791005343198776,0.0329989418387413,-0.06967088580131531,0.01,0.0,0.0,0.0,0.01,0.0,0.0,0.0,0.01,-0.13196494061811825,-10.144128389185667,-0.5446583370601759,0.01,0.0,0.0,0.0,0.01,0.0,0.0,0.0,0.01
1700026236.8939698,26742,1700026236,875609344,gx5_link,0.6768395304679871,0.12736715376377106,0.15461474657058716,0.708350419998169,0.01,0.0,0.0,0.0,0.01,0.0,0.0,0.0,0.01,-0.01891203783452511,0.02789723128080368,-0.03238251060247421,0.01,0.0,0.0,0.0,0.01,0.0,0.0,0.0,0.01,-0.11571806336273438,-10.079735119730234,-0.5717001463079825,0.01,0.0,0.0,0.0,0.01,0.0,0.0,0.0,0.01
1700026236.9038155,26743,1700026236,885624064,gx5_link,0.676770031452179,0.12742067873477936,0.15465977787971497,0.7083972692489624,0.01,0.0,0.0,0.0,0.01,0.0,0.0,0.0,0.01,-0.014845281839370728,0.02322499267756939,-0.003289968241006136,0.01,0.0,0.0,0.0,0.01,0.0,0.0,0.0,0.01,-0.11138176945778541,-9.983665440028906,-0.5505950701653957,0.01,0.0,0.0,0.0,0.01,0.0,0.0,0.0,0.01
1700026236.9193122,26744,1700026236,895646208,gx5_link,0.6767126321792603,0.12743429839611053,0.1547277867794037,0.7084348201751709,0.01,0.0,0.0,0.0,0.01,0.0,0.0,0.0,0.01,-0.013944587670266628,0.02091851457953453,0.009306671097874641,0.01,0.0,0.0,0.0,0.01,0.0,0.0,0.0,0.01,-0.09791034826510585,-9.863664265120029,-0.5571980851596221,0.01,0.0,0.0,0.0,0.01,0.0,0.0,0.0,0.01
1700026236.9241998,26745,1700026236,905662208,gx5_link,0.6766251921653748,0.12740202248096466,0.15477626025676727,0.7085134983062744,0.01,0.0,0.0,0.0,0.01,0.0,0.0,0.0,0.01,-0.020738016813993454,0.011790012940764427,0.011439690366387367,0.01,0.0,0.0,0.0,0.01,0.0,0.0,0.0,0.01,-0.11468503965372219,-9.832448458123206,-0.5842166596623137,0.01,0.0,0.0,0.0,0.01,0.0,0.0,0.0,0.01
1700026236.9340181,26746,1700026236,915675392,gx5_link,0.6765116453170776,0.1273145079612732,0.15479470789432526,0.7086336612701416,0.01,0.0,0.0,0.0,0.01,0.0,0.0,0.0,0.01,-0.029800089076161385,-0.00043680891394615173,0.014259224757552147,0.01,0.0,0.0,0.0,0.01,0.0,0.0,0.0,0.01,-0.12388023569877259,-9.843602304822205,-0.6264730987746269,0.01,0.0,0.0,0.0,0.01,0.0,0.0,0.0,0.01
1700026236.944547,26747,1700026236,925690624,gx5_link,0.6763800382614136,0.1271483302116394,0.1547703742980957,0.7087944149971008,0.01,0.0,0.0,0.0,0.01,0.0,0.0,0.0,0.01,-0.03838129714131355,-0.014890024438500404,0.015768898651003838,0.01,0.0,0.0,0.0,0.01,0.0,0.0,0.0,0.01,-0.1369132289415691,-9.805461082476377,-0.6423100617885589,0.01,0.0,0.0,0.0,0.01,0.0,0.0,0.0,0.01
1700026236.9549031,26748,1700026236,935708672,gx5_link,0.6762434244155884,0.12692910432815552,0.15469355881214142,0.7089807391166687,0.01,0.0,0.0,0.0,0.01,0.0,0.0,0.0,0.01,-0.04342605546116829,-0.02925494685769081,0.013424358330667019,0.01,0.0,0.0,0.0,0.01,0.0,0.0,0.0,0.01,-0.16477120427731423,-9.7504388679564,-0.6465395891170949,0.01,0.0,0.0,0.0,0.01,0.0,0.0,0.0,0.01
1700026236.9775443,26749,1700026236,945722368,gx5_link,0.6761165261268616,0.126695454120636,0.15458384156227112,0.70916748046875,0.01,0.0,0.0,0.0,0.01,0.0,0.0,0.0,0.01,-0.04273632541298866,-0.03828449919819832,0.011080365628004074,0.01,0.0,0.0,0.0,0.01,0.0,0.0,0.0,0.01,-0.19775610330589113,-9.68676514494717,-0.606669387554191,0.01,0.0,0.0,0.0,0.01,0.0,0.0,0.0,0.01
1700026236.9775703,26750,1700026236,955737856,gx5_link,0.6760370135307312,0.1265026181936264,0.15447448194026947,0.7093015313148499,0.01,0.0,0.0,0.0,0.01,0.0,0.0,0.0,0.01,-0.03314458951354027,-0.035982873290777206,0.007131337653845549,0.01,0.0,0.0,0.0,0.01,0.0,0.0,0.0,0.01,-0.22886980163510887,-9.62667395659983,-0.5392420110998675,0.01,0.0,0.0,0.0,0.01,0.0,0.0,0.0,0.01
1700026236.9840071,26751,1700026236,965754880,gx5_link,0.6759933233261108,0.12639014422893524,0.15439113974571228,0.7093814611434937,0.01,0.0,0.0,0.0,0.01,0.0,0.0,0.0,0.01,-0.020739657804369926,-0.022800352424383163,0.001352901803329587,0.01,0.0,0.0,0.0,0.01,0.0,0.0,0.0,0.01,-0.255269568386022,-9.582800912603735,-0.4839933674128726,0.01,0.0,0.0,0.0,0.01,0.0,0.0,0.0,0.01
1700026236.9905455,26752,1700026236,975767040,gx5_link,0.6759693622589111,0.12636461853981018,0.15430523455142975,0.7094274759292603,0.01,0.0,0.0,0.0,0.01,0.0,0.0,0.0,0.01,-0.010875573381781578,-0.011583101935684681,-0.00772867351770401,0.01,0.0,0.0,0.0,0.01,0.0,0.0,0.0,0.01,-0.25593148462716486,-9.5804055418998,-0.4953681999187916,0.01,0.0,0.0,0.0,0.01,0.0,0.0,0.0,0.01
1700026237.0092032,26753,1700026236,985787648,gx5_link,0.6759421229362488,0.12640544772148132,0.15421733260154724,0.7094652652740479,0.01,0.0,0.0,0.0,0.01,0.0,0.0,0.0,0.01,-0.004393840208649635,-0.0025211244355887175,-0.016043001785874367,0.01,0.0,0.0,0.0,0.01,0.0,0.0,0.0,0.01,-0.23621263867858797,-9.606240824902057,-0.5654379075754433,0.01,0.0,0.0,0.0,0.01,0.0,0.0,0.0,0.01
1700026237.0150757,26754,1700026236,995803648,gx5_link,0.6759085655212402,0.12648920714855194,0.15409323573112488,0.7095093131065369,0.01,0.0,0.0,0.0,0.01,0.0,0.0,0.0,0.01,-0.0010997116332873702,0.0015162619529291987,-0.025670530274510384,0.01,0.0,0.0,0.0,0.01,0.0,0.0,0.0,0.01,-0.2014174388250336,-9.630096916785835,-0.6332727688521146,0.01,0.0,0.0,0.0,0.01,0.0,0.0,0.0,0.01
1700026237.0225306,26755,1700026237,5817856,gx5_link,0.6758940815925598,0.12655097246170044,0.1539475917816162,0.7095436453819275,0.01,0.0,0.0,0.0,0.01,0.0,0.0,0.0,0.01,0.003646672470495105,-0.002375599229708314,-0.025986120104789734,0.01,0.0,0.0,0.0,0.01,0.0,0.0,0.0,0.01,-0.17416763111604378,-9.677844171866774,-0.6597597206961363,0.01,0.0,0.0,0.0,0.01,0.0,0.0,0.0,0.01
1700026237.0342171,26756,1700026237,15833856,gx5_link,0.6759141087532043,0.1265660524368286,0.15380021929740906,0.7095538377761841,0.01,0.0,0.0,0.0,0.01,0.0,0.0,0.0,0.01,0.010160554200410843,-0.009465372189879417,-0.018701810389757156,0.01,0.0,0.0,0.0,0.01,0.0,0.0,0.0,0.01,-0.15327183207627385,-9.719860189819336,-0.6834629601057618,0.01,0.0,0.0,0.0,0.01,0.0,0.0,0.0,0.01
1700026237.043952,26757,1700026237,25850368,gx5_link,0.6759488582611084,0.12652446329593658,0.1536402553319931,0.7095627784729004,0.01,0.0,0.0,0.0,0.01,0.0,0.0,0.0,0.01,0.012473615817725658,-0.018434369936585426,-0.013479591347277164,0.01,0.0,0.0,0.0,0.01,0.0,0.0,0.0,0.01,-0.14288405611263588,-9.708478964105248,-0.7142253242466599,0.01,0.0,0.0,0.0,0.01,0.0,0.0,0.0,0.01
1700026237.0539875,26758,1700026237,35863808,gx5_link,0.6759824752807617,0.12643767893314362,0.1534462720155716,0.7095882296562195,0.01,0.0,0.0,0.0,0.01,0.0,0.0,0.0,0.01,0.009749974124133587,-0.03034733608365059,-0.01178803388029337,0.01,0.0,0.0,0.0,0.01,0.0,0.0,0.0,0.01,-0.14812876096623948,-9.688919692632556,-0.6824493260838091,0.01,0.0,0.0,0.0,0.01,0.0,0.0,0.0,0.01
1700026237.0640104,26759,1700026237,45879296,gx5_link,0.6760240793228149,0.12631669640541077,0.15324395895004272,0.7096138596534729,0.01,0.0,0.0,0.0,0.01,0.0,0.0,0.0,0.01,0.007236264180392027,-0.038130588829517365,-0.00814653467386961,0.01,0.0,0.0,0.0,0.01,0.0,0.0,0.0,0.01,-0.15990451155640184,-9.716714293009042,-0.6561146421920507,0.01,0.0,0.0,0.0,0.01,0.0,0.0,0.0,0.01
1700026237.0740032,26760,1700026237,55895808,gx5_link,0.676056981086731,0.12615355849266052,0.15304559469223022,0.7096543908119202,0.01,0.0,0.0,0.0,0.01,0.0,0.0,0.0,0.01,0.005326009821146727,-0.04483341425657272,-0.0027551769744604826,0.01,0.0,0.0,0.0,0.01,0.0,0.0,0.0,0.01,-0.18643621585760264,-9.732298815631866,-0.6702669400546699,0.01,0.0,0.0,0.0,0.01,0.0,0.0,0.0,0.01
1700026237.0883236,26761,1700026237,65910272,gx5_link,0.6761144399642944,0.1259276270866394,0.15286408364772797,0.7096788883209229,0.01,0.0,0.0,0.0,0.01,0.0,0.0,0.0,0.01,0.007425516378134489,-0.05175383761525154,0.005421382840722799,0.01,0.0,0.0,0.0,0.01,0.0,0.0,0.0,0.01,-0.22336221719477325,-9.733436879751086,-0.6373035587381571,0.01,0.0,0.0,0.0,0.01,0.0,0.0,0.0,0.01
1700026237.09901,26762,1700026237,75930624,gx5_link,0.6762211322784424,0.12567433714866638,0.15270347893238068,0.7096567749977112,0.01,0.0,0.0,0.0,0.01,0.0,0.0,0.0,0.01,0.01558712963014841,-0.05446315556764603,0.01451453473418951,0.01,0.0,0.0,0.0,0.01,0.0,0.0,0.0,0.01,-0.27603931162701917,-9.739504216966033,-0.5874756979908794,0.01,0.0,0.0,0.0,0.01,0.0,0.0,0.0,0.01
1700026237.105379,26763,1700026237,85947904,gx5_link,0.6763663291931152,0.12541131675243378,0.15258784592151642,0.7095897197723389,0.01,0.0,0.0,0.0,0.01,0.0,0.0,0.0,0.01,0.024051932618021965,-0.051454123109579086,0.021881215274333954,0.01,0.0,0.0,0.0,0.01,0.0,0.0,0.0,0.01,-0.3289619052529335,-9.744758484232426,-0.5319307017058134,0.01,0.0,0.0,0.0,0.01,0.0,0.0,0.0,0.01
1700026237.1139238,26764,1700026237,95961856,gx5_link,0.6765486001968384,0.1251918375492096,0.15252135694026947,0.7094690799713135,0.01,0.0,0.0,0.0,0.01,0.0,0.0,0.0,0.01,0.03311193361878395,-0.03968409448862076,0.02436773106455803,0.01,0.0,0.0,0.0,0.01,0.0,0.0,0.0,0.01,-0.3598181582223624,-9.763297180485726,-0.47272385844495146,0.01,0.0,0.0,0.0,0.01,0.0,0.0,0.0,0.01
1700026237.1234815,26765,1700026237,105976064,gx5_link,0.676712691783905,0.12504327297210693,0.15249082446098328,0.7093452215194702,0.01,0.0,0.0,0.0,0.01,0.0,0.0,0.0,0.01,0.032870467752218246,-0.02515638992190361,0.020461594685912132,0.01,0.0,0.0,0.0,0.01,0.0,0.0,0.0,0.01,-0.37170733345858753,-9.770473940247296,-0.45178467692118135,0.01,0.0,0.0,0.0,0.01,0.0,0.0,0.0,0.01
1700026237.133963,26766,1700026237,115992320,gx5_link,0.6768261194229126,0.12496994435787201,0.15244807302951813,0.7092592120170593,0.01,0.0,0.0,0.0,0.01,0.0,0.0,0.0,0.01,0.026047706604003906,-0.015163140371441841,0.0073606655932962894,0.01,0.0,0.0,0.0,0.01,0.0,0.0,0.0,0.01,-0.3775221937498078,-9.783844293951988,-0.48103758634719995,0.01,0.0,0.0,0.0,0.01,0.0,0.0,0.0,0.01
1700026237.1498334,26767,1700026237,126007296,gx5_link,0.6768850088119507,0.1249578446149826,0.1523905098438263,0.7092174887657166,0.01,0.0,0.0,0.0,0.01,0.0,0.0,0.0,0.01,0.016708528622984886,-0.00812840461730957,-0.0038836472667753696,0.01,0.0,0.0,0.0,0.01,0.0,0.0,0.0,0.01,-0.3684350337896496,-9.822561854881048,-0.5122434930045158,0.01,0.0,0.0,0.0,0.01,0.0,0.0,0.0,0.01
1700026237.1534224,26768,1700026237,136022784,gx5_link,0.6769105195999146,0.1249532699584961,0.15234079957008362,0.7092045545578003,0.01,0.0,0.0,0.0,0.01,0.0,0.0,0.0,0.01,0.009141098707914352,-0.004641120787709951,-0.0074277906678617,0.01,0.0,0.0,0.0,0.01,0.0,0.0,0.0,0.01,-0.3669411419700831,-9.852727860563993,-0.5191203930366785,0.01,0.0,0.0,0.0,0.01,0.0,0.0,0.0,0.01
1700026237.1641247,26769,1700026237,146040320,gx5_link,0.6769396066665649,0.12495855242013931,0.15228375792503357,0.7091882228851318,0.01,0.0,0.0,0.0,0.01,0.0,0.0,0.0,0.01,0.009410473518073559,-0.003349103033542633,-0.009655678644776344,0.01,0.0,0.0,0.0,0.01,0.0,0.0,0.0,0.01,-0.3731650579862296,-9.856688580888509,-0.538422547943145,0.01,0.0,0.0,0.0,0.01,0.0,0.0,0.0,0.01
1700026237.1738994,26770,1700026237,156053504,gx5_link,0.6769868731498718,0.12496381253004074,0.15223103761672974,0.7091534733772278,0.01,0.0,0.0,0.0,0.01,0.0,0.0,0.0,0.01,0.013453954830765724,-0.002060487400740385,-0.008725730702280998,0.01,0.0,0.0,0.0,0.01,0.0,0.0,0.0,0.01,-0.3953204103667289,-9.870568637681007,-0.574726581457071,0.01,0.0,0.0,0.0,0.01,0.0,0.0,0.0,0.01
1700026237.190263,26771,1700026237,166073856,gx5_link,0.6770399808883667,0.12497418373823166,0.15218095481395721,0.7091116309165955,0.01,0.0,0.0,0.0,0.01,0.0,0.0,0.0,0.01,0.01616145670413971,-0.0005640076124109328,-0.010050775483250618,0.01,0.0,0.0,0.0,0.01,0.0,0.0,0.0,0.01,-0.4180796834571287,-9.858149885612725,-0.5733523704944178,0.01,0.0,0.0,0.0,0.01,0.0,0.0,0.0,0.01
1700026237.193929,26772,1700026237,176090368,gx5_link,0.6770933866500854,0.1250012367963791,0.15211309492588043,0.7090704441070557,0.01,0.0,0.0,0.0,0.01,0.0,0.0,0.0,0.01,0.015807010233402252,-0.0011650481028482318,-0.015471968799829483,0.01,0.0,0.0,0.0,0.01,0.0,0.0,0.0,0.01,-0.4236471813911572,-9.825976631760597,-0.5135124900270253,0.01,0.0,0.0,0.0,0.01,0.0,0.0,0.0,0.01
1700026237.2087,26773,1700026237,186104576,gx5_link,0.6771306991577148,0.12509188055992126,0.1520323008298874,0.7090362310409546,0.01,0.0,0.0,0.0,0.01,0.0,0.0,0.0,0.01,0.012969673611223698,0.0043701427057385445,-0.024883683770895004,0.01,0.0,0.0,0.0,0.01,0.0,0.0,0.0,0.01,-0.4123167360162362,-9.818799871999024,-0.4704545983387157,0.01,0.0,0.0,0.0,0.01,0.0,0.0,0.0,0.01
1700026237.2138426,26774,1700026237,196120320,gx5_link,0.6771261096000671,0.12522868812084198,0.15192243456840515,0.7090399861335754,0.01,0.0,0.0,0.0,0.01,0.0,0.0,0.0,0.01,0.006201649084687233,0.007790816016495228,-0.03620966896414757,0.01,0.0,0.0,0.0,0.01,0.0,0.0,0.0,0.01,-0.39925789594613015,-9.832658886003493,-0.4935927512114867,0.01,0.0,0.0,0.0,0.01,0.0,0.0,0.0,0.01
1700026237.2236876,26775,1700026237,206136320,gx5_link,0.6770754456520081,0.1253996342420578,0.1517820507287979,0.709088146686554,0.01,0.0,0.0,0.0,0.01,0.0,0.0,0.0,0.01,-0.004439099226146936,0.009233186021447182,-0.04681307077407837,0.01,0.0,0.0,0.0,0.01,0.0,0.0,0.0,0.01,-0.38002175548058004,-9.859127206212282,-0.4990397280383855,0.01,0.0,0.0,0.0,0.01,0.0,0.0,0.0,0.01
1700026237.2336857,26776,1700026237,216150272,gx5_link,0.6770037412643433,0.12556153535842896,0.15162743628025055,0.7091610431671143,0.01,0.0,0.0,0.0,0.01,0.0,0.0,0.0,0.01,-0.012032033875584602,0.006051859352737665,-0.04956265911459923,0.01,0.0,0.0,0.0,0.01,0.0,0.0,0.0,0.01,-0.3596090089837089,-9.890421339142321,-0.4795011705601588,0.01,0.0,0.0,0.0,0.01,0.0,0.0,0.0,0.01
1700026237.2440379,26777,1700026237,226166016,gx5_link,0.6769177913665771,0.1257040798664093,0.15150663256645203,0.7092435956001282,0.01,0.0,0.0,0.0,0.01,0.0,0.0,0.0,0.01,-0.01752292923629284,0.008013802580535412,-0.04377478361129761,0.01,0.0,0.0,0.0,0.01,0.0,0.0,0.0,0.01,-0.3352336059335619,-9.896011706495285,-0.44747711592037226,0.01,0.0,0.0,0.0,0.01,0.0,0.0,0.0,0.01
1700026237.254874,26778,1700026237,236183552,gx5_link,0.6768222451210022,0.12584379315376282,0.1514262855052948,0.7093272805213928,0.01,0.0,0.0,0.0,0.01,0.0,0.0,0.0,0.01,-0.02019471861422062,0.013159191235899925,-0.037238214164972305,0.01,0.0,0.0,0.0,0.01,0.0,0.0,0.0,0.01,-0.31014822798315433,-9.871721314847468,-0.449617781210877,0.01,0.0,0.0,0.0,0.01,0.0,0.0,0.0,0.01
1700026237.2651868,26779,1700026237,246196992,gx5_link,0.6767429709434509,0.12594813108444214,0.1513797640800476,0.7093942165374756,0.01,0.0,0.0,0.0,0.01,0.0,0.0,0.0,0.01,-0.017583774402737617,0.013002975843846798,-0.026253266260027885,0.01,0.0,0.0,0.0,0.01,0.0,0.0,0.0,0.01,-0.29726737482845783,-9.860753346109389,-0.46708946928717193,0.01,0.0,0.0,0.0,0.01,0.0,0.0,0.0,0.01
1700026237.277273,26780,1700026237,256216832,gx5_link,0.6766787171363831,0.12602581083774567,0.15136636793613434,0.7094445824623108,0.01,0.0,0.0,0.0,0.01,0.0,0.0,0.0,0.01,-0.015012678690254688,0.013596693053841591,-0.017146775498986244,0.01,0.0,0.0,0.0,0.01,0.0,0.0,0.0,0.01,-0.2927706479310989,-9.851984348720311,-0.4696356831712648,0.01,0.0,0.0,0.0,0.01,0.0,0.0,0.0,0.01
1700026237.2838714,26781,1700026237,266233344,gx5_link,0.6766189336776733,0.12607018649578094,0.15139079093933105,0.7094885110855103,0.01,0.0,0.0,0.0,0.01,0.0,0.0,0.0,0.01,-0.015539770945906639,0.013413741253316402,-0.00856575183570385,0.01,0.0,0.0,0.0,0.01,0.0,0.0,0.0,0.01,-0.2891224276218563,-9.815929869520664,-0.47981326871663327,0.01,0.0,0.0,0.0,0.01,0.0,0.0,0.0,0.01
1700026237.293724,26782,1700026237,276245760,gx5_link,0.6765385866165161,0.12610991299152374,0.15141649544239044,0.7095527052879333,0.01,0.0,0.0,0.0,0.01,0.0,0.0,0.0,0.01,-0.019072752445936203,0.013410494662821293,-0.0071915555745363235,0.01,0.0,0.0,0.0,0.01,0.0,0.0,0.0,0.01,-0.2881706981212832,-9.776879131114482,-0.5147811217233539,0.01,0.0,0.0,0.0,0.01,0.0,0.0,0.0,0.01
1700026237.3058665,26783,1700026237,286261504,gx5_link,0.6764410734176636,0.12613850831985474,0.15141986310482025,0.709639847278595,0.01,0.0,0.0,0.0,0.01,0.0,0.0,0.0,0.01,-0.02256811410188675,0.010306856594979763,-0.008620023727416992,0.01,0.0,0.0,0.0,0.01,0.0,0.0,0.0,0.01,-0.28685881180511785,-9.748670104718208,-0.5585390514397993,0.01,0.0,0.0,0.0,0.01,0.0,0.0,0.0,0.01
1700026237.3137531,26784,1700026237,296276992,gx5_link,0.6763401031494141,0.12615017592906952,0.15141946077346802,0.7097340226173401,0.01,0.0,0.0,0.0,0.01,0.0,0.0,0.0,0.01,-0.023343846201896667,0.00722455233335495,-0.006838097237050533,0.01,0.0,0.0,0.0,0.01,0.0,0.0,0.0,0.01,-0.2794202227695845,-9.7341388905406,-0.5919696849418804,0.01,0.0,0.0,0.0,0.01,0.0,0.0,0.0,0.01
1700026237.3238633,26785,1700026237,306290688,gx5_link,0.6762686371803284,0.12613266706466675,0.15141256153583527,0.7098066806793213,0.01,0.0,0.0,0.0,0.01,0.0,0.0,0.0,0.01,-0.01795858144760132,0.002338679973036051,-0.004007665440440178,0.01,0.0,0.0,0.0,0.01,0.0,0.0,0.0,0.01,-0.2801172833893448,-9.730117964461446,-0.6266268280316144,0.01,0.0,0.0,0.0,0.01,0.0,0.0,0.0,0.01
1700026237.3344562,26786,1700026237,318304512,gx5_link,0.6762259006500244,0.12610961496829987,0.15139228105545044,0.709855854511261,0.01,0.0,0.0,0.0,0.01,0.0,0.0,0.0,0.01,-0.010044937022030354,-0.0006317824008874595,-0.0038123067934066057,0.01,0.0,0.0,0.0,0.01,0.0,0.0,0.0,0.01,-0.27971951624341307,-9.704899936574696,-0.6246641496565193,0.01,0.0,0.0,0.0,0.01,0.0,0.0,0.0,0.01
1700026237.3445349,26787,1700026237,328318976,gx5_link,0.6761952042579651,0.12614187598228455,0.15134607255458832,0.7098891735076904,0.01,0.0,0.0,0.0,0.01,0.0,0.0,0.0,0.01,-0.004080523271113634,0.002426882041618228,-0.012648753821849823,0.01,0.0,0.0,0.0,0.01,0.0,0.0,0.0,0.01,-0.27162787012662737,-9.681444826707244,-0.6224712427221238,0.01,0.0,0.0,0.0,0.01,0.0,0.0,0.0,0.01
1700026237.3574502,26788,1700026237,338334720,gx5_link,0.676159143447876,0.12621213495731354,0.1512785702943802,0.7099254131317139,0.01,0.0,0.0,0.0,0.01,0.0,0.0,0.0,0.01,-0.002981455298140645,0.003944615367799997,-0.019514745101332664,0.01,0.0,0.0,0.0,0.01,0.0,0.0,0.0,0.01,-0.2753871678612195,-9.747632578364014,-0.6353571008455008,0.01,0.0,0.0,0.0,0.01,0.0,0.0,0.0,0.01
1700026237.3689075,26789,1700026237,348352512,gx5_link,0.6761423349380493,0.1262618899345398,0.15122492611408234,0.7099441289901733,0.01,0.0,0.0,0.0,0.01,0.0,0.0,0.0,0.01,0.0009651582804508507,0.005499479826539755,-0.01654749922454357,0.01,0.0,0.0,0.0,0.01,0.0,0.0,0.0,0.01,-0.28798640932925046,-9.808900409275292,-0.6380806805904954,0.01,0.0,0.0,0.0,0.01,0.0,0.0,0.0,0.01
1700026237.3764908,26790,1700026237,358368256,gx5_link,0.6761491894721985,0.12629836797714233,0.15121354162693024,0.7099334001541138,0.01,0.0,0.0,0.0,0.01,0.0,0.0,0.0,0.01,0.005169095937162638,0.008764956146478653,-0.0084932129830122,0.01,0.0,0.0,0.0,0.01,0.0,0.0,0.0,0.01,-0.2861748298626393,-9.798936064621806,-0.5974406636988744,0.01,0.0,0.0,0.0,0.01,0.0,0.0,0.0,0.01
1700026237.3856096,26791,1700026237,368384256,gx5_link,0.6761653423309326,0.12635114789009094,0.15122874081134796,0.7099053859710693,0.01,0.0,0.0,0.0,0.01,0.0,0.0,0.0,0.01,0.0076561495661735535,0.01213561836630106,-0.005350634455680847,0.01,0.0,0.0,0.0,0.01,0.0,0.0,0.0,0.01,-0.27682912856414915,-9.769732766491174,-0.5473763273146003,0.01,0.0,0.0,0.0,0.01,0.0,0.0,0.0,0.01
1700026237.3935518,26792,1700026237,378397696,gx5_link,0.6761680841445923,0.12641356885433197,0.1512434035539627,0.7098886370658875,0.01,0.0,0.0,0.0,0.01,0.0,0.0,0.0,0.01,0.004531632177531719,0.012947814539074898,-0.006894475780427456,0.01,0.0,0.0,0.0,0.01,0.0,0.0,0.0,0.01,-0.27092355778217314,-9.738626265087722,-0.5349119094736874,0.01,0.0,0.0,0.0,0.01,0.0,0.0,0.0,0.01
1700026237.405171,26793,1700026237,388412672,gx5_link,0.6761413216590881,0.12649305164813995,0.15124323964118958,0.70989990234375,0.01,0.0,0.0,0.0,0.01,0.0,0.0,0.0,0.01,-0.0018051320221275091,0.013710679486393929,-0.011738508939743042,0.01,0.0,0.0,0.0,0.01,0.0,0.0,0.0,0.01,-0.2554097805743106,-9.747096571791172,-0.5419722397813573,0.01,0.0,0.0,0.0,0.01,0.0,0.0,0.0,0.01
1700026237.4199586,26794,1700026237,398429184,gx5_link,0.6760907173156738,0.12657736241817474,0.15123531222343445,0.7099347710609436,0.01,0.0,0.0,0.0,0.01,0.0,0.0,0.0,0.01,-0.00788985937833786,0.013399442657828331,-0.013094552792608738,0.01,0.0,0.0,0.0,0.01,0.0,0.0,0.0,0.01,-0.2364918574787676,-9.75838135139346,-0.538063505372405,0.01,0.0,0.0,0.0,0.01,0.0,0.0,0.0,0.01
1700026237.4244797,26795,1700026237,408442624,gx5_link,0.6760392785072327,0.12665283679962158,0.15122351050376892,0.7099727988243103,0.01,0.0,0.0,0.0,0.01,0.0,0.0,0.0,0.01,-0.009078542701900005,0.013077300041913986,-0.012949096038937569,0.01,0.0,0.0,0.0,0.01,0.0,0.0,0.0,0.01,-0.22607573220347985,-9.77119757834673,-0.5329689587123692,0.01,0.0,0.0,0.0,0.01,0.0,0.0,0.0,0.01
1700026237.43455,26796,1700026237,418456576,gx5_link,0.6760148406028748,0.12670326232910156,0.15122927725315094,0.7099858522415161,0.01,0.0,0.0,0.0,0.01,0.0,0.0,0.0,0.01,-0.003929841332137585,0.012404639273881912,-0.0063816518522799015,0.01,0.0,0.0,0.0,0.01,0.0,0.0,0.0,0.01,-0.23596903918106107,-9.807005389308928,-0.5210082160772755,0.01,0.0,0.0,0.0,0.01,0.0,0.0,0.0,0.01
1700026237.4451957,26797,1700026237,428471808,gx5_link,0.6760164499282837,0.1267300248146057,0.15127594769001007,0.7099696397781372,0.01,0.0,0.0,0.0,0.01,0.0,0.0,0.0,0.01,0.0008813815074972808,0.014869628474116325,0.002203787676990032,0.01,0.0,0.0,0.0,0.01,0.0,0.0,0.0,0.01,-0.24676336838528512,-9.805411398115753,-0.5196772962670773,0.01,0.0,0.0,0.0,0.01,0.0,0.0,0.0,0.01
1700026237.4592946,26798,1700026237,436492800,gx5_link,0.6760221123695374,0.12677833437919617,0.1513439416885376,0.7099410891532898,0.01,0.0,0.0,0.0,0.01,0.0,0.0,0.0,0.01,0.002816826105117798,0.0190284363925457,0.0025023468770086765,0.01,0.0,0.0,0.0,0.01,0.0,0.0,0.0,0.01,-0.2510689200920984,-9.761350722593068,-0.5075014861091971,0.01,0.0,0.0,0.0,0.01,0.0,0.0,0.0,0.01
1700026237.4715524,26799,1700026237,446510336,gx5_link,0.6760057210922241,0.12689056992530823,0.15140792727470398,0.7099229693412781,0.01,0.0,0.0,0.0,0.01,0.0,0.0,0.0,0.01,0.0009501359891146421,0.026052845641970634,-0.005205911584198475,0.01,0.0,0.0,0.0,0.01,0.0,0.0,0.0,0.01,-0.23946197759704663,-9.708087918961047,-0.5105346797926351,0.01,0.0,0.0,0.0,0.01,0.0,0.0,0.0,0.01
1700026237.4812639,26800,1700026237,456528384,gx5_link,0.6759459972381592,0.1270720660686493,0.15141113102436066,0.7099468111991882,0.01,0.0,0.0,0.0,0.01,0.0,0.0,0.0,0.01,-0.0030712883453816175,0.03014393337070942,-0.02368263714015484,0.01,0.0,0.0,0.0,0.01,0.0,0.0,0.0,0.01,-0.20907955268444492,-9.67779857915938,-0.5831366093406454,0.01,0.0,0.0,0.0,0.01,0.0,0.0,0.0,0.01
1700026237.4860027,26801,1700026237,466543104,gx5_link,0.6758430600166321,0.1273028403520584,0.15133927762508392,0.7100186944007874,0.01,0.0,0.0,0.0,0.01,0.0,0.0,0.0,0.01,-0.009311407804489136,0.028482941910624504,-0.040962692350149155,0.01,0.0,0.0,0.0,0.01,0.0,0.0,0.0,0.01,-0.1702439000673592,-9.703685300087928,-0.6390113125041127,0.01,0.0,0.0,0.0,0.01,0.0,0.0,0.0,0.01
1700026237.4953122,26802,1700026237,476559616,gx5_link,0.675739586353302,0.1275319904088974,0.15119363367557526,0.7101070880889893,0.01,0.0,0.0,0.0,0.01,0.0,0.0,0.0,0.01,-0.010551327839493752,0.02086479216814041,-0.050002504140138626,0.01,0.0,0.0,0.0,0.01,0.0,0.0,0.0,0.01,-0.12163834765665232,-9.749066995081305,-0.6699776017192751,0.01,0.0,0.0,0.0,0.01,0.0,0.0,0.0,0.01
1700026237.5059998,26803,1700026237,486577920,gx5_link,0.6756564378738403,0.1277087777853012,0.151038259267807,0.7101876139640808,0.01,0.0,0.0,0.0,0.01,0.0,0.0,0.0,0.01,-0.008058645762503147,0.012843919917941093,-0.04446928948163986,0.01,0.0,0.0,0.0,0.01,0.0,0.0,0.0,0.01,-0.09136147461091168,-9.81509751034975,-0.6855446617506444,0.01,0.0,0.0,0.0,0.01,0.0,0.0,0.0,0.01
1700026237.5146446,26804,1700026237,496592128,gx5_link,0.6756182909011841,0.1278267651796341,0.1509278118610382,0.7102260589599609,0.01,0.0,0.0,0.0,0.01,0.0,0.0,0.0,0.01,-0.0005080885603092611,0.007816585712134838,-0.029342221096158028,0.01,0.0,0.0,0.0,0.01,0.0,0.0,0.0,0.01,-0.07293269130575936,-9.838741420787573,-0.6480265397392213,0.01,0.0,0.0,0.0,0.01,0.0,0.0,0.0,0.01
1700026237.5259829,26805,1700026237,506609152,gx5_link,0.6756359338760376,0.12793253362178802,0.15087376534938812,0.7102017402648926,0.01,0.0,0.0,0.0,0.01,0.0,0.0,0.0,0.01,0.008963063359260559,0.010855545289814472,-0.01642409712076187,0.01,0.0,0.0,0.0,0.01,0.0,0.0,0.0,0.01,-0.04386461409446783,-9.787435596442222,-0.5471583006497472,0.01,0.0,0.0,0.0,0.01,0.0,0.0,0.0,0.01
1700026237.539372,26806,1700026237,516627456,gx5_link,0.6756839156150818,0.12805241346359253,0.1508421152830124,0.7101411819458008,0.01,0.0,0.0,0.0,0.01,0.0,0.0,0.0,0.01,0.016489269211888313,0.016229987144470215,-0.011953338980674744,0.01,0.0,0.0,0.0,0.01,0.0,0.0,0.0,0.01,-0.02566480353986844,-9.763684133976698,-0.4902435138488188,0.01,0.0,0.0,0.0,0.01,0.0,0.0,0.0,0.01
1700026237.549699,26807,1700026237,526648320,gx5_link,0.675731897354126,0.12819595634937286,0.15084201097488403,0.7100697159767151,0.01,0.0,0.0,0.0,0.01,0.0,0.0,0.0,0.01,0.01822182908654213,0.022766029462218285,-0.009898507967591286,0.01,0.0,0.0,0.0,0.01,0.0,0.0,0.0,0.01,-0.013992709687002934,-9.790680277451873,-0.4885990345774218,0.01,0.0,0.0,0.0,0.01,0.0,0.0,0.0,0.01
1700026237.5549822,26808,1700026237,536664320,gx5_link,0.6757563352584839,0.12834495306015015,0.15085755288600922,0.7100161910057068,0.01,0.0,0.0,0.0,0.01,0.0,0.0,0.0,0.01,0.015070270746946335,0.026413725689053535,-0.007676432840526104,0.01,0.0,0.0,0.0,0.01,0.0,0.0,0.0,0.01,0.005546106944483472,-9.823896902877092,-0.5217595824338496,0.01,0.0,0.0,0.0,0.01,0.0,0.0,0.0,0.01
1700026237.5668693,26809,1700026237,546683136,gx5_link,0.6757444143295288,0.1284237951040268,0.15085451304912567,0.7100138664245605,0.01,0.0,0.0,0.0,0.01,0.0,0.0,0.0,0.01,0.004904755856841803,0.01732610911130905,-0.0024793532211333513,0.01,0.0,0.0,0.0,0.01,0.0,0.0,0.0,0.01,0.011558258214849047,-9.887004224175215,-0.596450374019891,0.01,0.0,0.0,0.0,0.01,0.0,0.0,0.0,0.01
1700026237.574575,26810,1700026237,556698112,gx5_link,0.6757319569587708,0.12839275598526,0.1508559137582779,0.7100310921669006,0.01,0.0,0.0,0.0,0.01,0.0,0.0,0.0,0.01,-0.002188731450587511,0.00476105697453022,0.009809072129428387,0.01,0.0,0.0,0.0,0.01,0.0,0.0,0.0,0.01,0.03324835172075545,-9.893907427692413,-0.6176841545760631,0.01,0.0,0.0,0.0,0.01,0.0,0.0,0.0,0.01
1700026237.585204,26811,1700026237,566714368,gx5_link,0.6756854057312012,0.12822088599205017,0.15084175765514374,0.7101094722747803,0.01,0.0,0.0,0.0,0.01,0.0,0.0,0.0,0.01,-0.011781341396272182,-0.01819446124136448,0.0220218226313591,0.01,0.0,0.0,0.0,0.01,0.0,0.0,0.0,0.01,0.0006549004800584953,-9.865836348462103,-0.6956880162328481,0.01,0.0,0.0,0.0,0.01,0.0,0.0,0.0,0.01
1700026237.5960844,26812,1700026237,576732160,gx5_link,0.675645112991333,0.12793588638305664,0.15079618990421295,0.7102088928222656,0.01,0.0,0.0,0.0,0.01,0.0,0.0,0.0,0.01,-0.018385466188192368,-0.039608944207429886,0.03235482797026634,0.01,0.0,0.0,0.0,0.01,0.0,0.0,0.0,0.01,-0.04759969983641058,-9.817406371814013,-0.7085648873321712,0.01,0.0,0.0,0.0,0.01,0.0,0.0,0.0,0.01
1700026237.6034462,26813,1700026237,586745856,gx5_link,0.6756302714347839,0.12758183479309082,0.15069660544395447,0.710307776927948,0.01,0.0,0.0,0.0,0.01,0.0,0.0,0.0,0.01,-0.019948650151491165,-0.057893022894859314,0.03281393647193909,0.01,0.0,0.0,0.0,0.01,0.0,0.0,0.0,0.01,-0.12223179263831116,-9.729990538689494,-0.6362129139572381,0.01,0.0,0.0,0.0,0.01,0.0,0.0,0.0,0.01
1700026237.6156611,26814,1700026237,596762624,gx5_link,0.6756220459938049,0.12726274132728577,0.15053574740886688,0.710407018661499,0.01,0.0,0.0,0.0,0.01,0.0,0.0,0.0,0.01,-0.018639514222741127,-0.06399890035390854,0.018318170681595802,0.01,0.0,0.0,0.0,0.01,0.0,0.0,0.0,0.01,-0.20694228492742403,-9.66671779769659,-0.5946376985747367,0.01,0.0,0.0,0.0,0.01,0.0,0.0,0.0,0.01
1700026237.6256573,26815,1700026237,606779648,gx5_link,0.6756033301353455,0.1270095556974411,0.15033741295337677,0.7105121612548828,0.01,0.0,0.0,0.0,0.01,0.0,0.0,0.0,0.01,-0.01909947395324707,-0.05950362980365753,0.003342081792652607,0.01,0.0,0.0,0.0,0.01,0.0,0.0,0.0,0.01,-0.26719416199550033,-9.691524322172999,-0.5407664807207883,0.01,0.0,0.0,0.0,0.01,0.0,0.0,0.0,0.01
1700026237.6381798,26816,1700026237,616799744,gx5_link,0.6755805611610413,0.12682269513607025,0.15020562708377838,0.7105949521064758,0.01,0.0,0.0,0.0,0.01,0.0,0.0,0.0,0.01,-0.01618613302707672,-0.04384550824761391,0.0005377681227400899,0.01,0.0,0.0,0.0,0.01,0.0,0.0,0.0,0.01,-0.3195753239547834,-9.759056474176049,-0.5308658124206588,0.01,0.0,0.0,0.0,0.01,0.0,0.0,0.0,0.01
1700026237.6456094,26817,1700026237,626815488,gx5_link,0.6755887866020203,0.12669737637043,0.1501501053571701,0.7106212377548218,0.01,0.0,0.0,0.0,0.01,0.0,0.0,0.0,0.01,-0.006420533172786236,-0.02561657689511776,0.003952878527343273,0.01,0.0,0.0,0.0,0.01,0.0,0.0,0.0,0.01,-0.33919670087825504,-9.758323483726382,-0.532563775444962,0.01,0.0,0.0,0.0,0.01,0.0,0.0,0.0,0.01
1700026237.6598475,26818,1700026237,636834048,gx5_link,0.6756283044815063,0.12661898136138916,0.1501283198595047,0.710602343082428,0.01,0.0,0.0,0.0,0.01,0.0,0.0,0.0,0.01,0.006727828644216061,-0.014147947542369366,0.003981385845690966,0.01,0.0,0.0,0.0,0.01,0.0,0.0,0.0,0.01,-0.3525030129034072,-9.753660752612351,-0.57931759904176,0.01,0.0,0.0,0.0,0.01,0.0,0.0,0.0,0.01
1700026237.6656046,26819,1700026237,646848768,gx5_link,0.6756770610809326,0.12658420205116272,0.15011218190193176,0.7105655670166016,0.01,0.0,0.0,0.0,0.01,0.0,0.0,0.0,0.01,0.014214931055903435,-0.0065505774691700935,0.0007874275906942785,0.01,0.0,0.0,0.0,0.01,0.0,0.0,0.0,0.01,-0.35497579622510816,-9.733027129906416,-0.6400772612351924,0.01,0.0,0.0,0.0,0.01,0.0,0.0,0.0,0.01
1700026237.6758595,26820,1700026237,656865280,gx5_link,0.6757419109344482,0.12661105394363403,0.1500597447156906,0.7105101943016052,0.01,0.0,0.0,0.0,0.01,0.0,0.0,0.0,0.01,0.018171992152929306,-0.0019375921692699194,-0.010536562651395798,0.01,0.0,0.0,0.0,0.01,0.0,0.0,0.0,0.01,-0.34920985310953107,-9.72063585036695,-0.5802583139579742,0.01,0.0,0.0,0.0,0.01,0.0,0.0,0.0,0.01
1700026237.6859229,26821,1700026237,666883072,gx5_link,0.675798237323761,0.12671014666557312,0.1499786376953125,0.7104559540748596,0.01,0.0,0.0,0.0,0.01,0.0,0.0,0.0,0.01,0.017711233347654343,0.0043735625222325325,-0.024404147639870644,0.01,0.0,0.0,0.0,0.01,0.0,0.0,0.0,0.01,-0.35090335915442555,-9.734508892896772,-0.5093078414114192,0.01,0.0,0.0,0.0,0.01,0.0,0.0,0.0,0.01
1700026237.695784,26822,1700026237,676896768,gx5_link,0.6758046746253967,0.12687735259532928,0.14987321197986603,0.7104422450065613,0.01,0.0,0.0,0.0,0.01,0.0,0.0,0.0,0.01,0.009397909045219421,0.011458209715783596,-0.03886079415678978,0.01,0.0,0.0,0.0,0.01,0.0,0.0,0.0,0.01,-0.33735567612145095,-9.745634098023176,-0.4750195316340774,0.01,0.0,0.0,0.0,0.01,0.0,0.0,0.0,0.01
1700026237.705796,26823,1700026237,686913536,gx5_link,0.6757705211639404,0.12709234654903412,0.14973878860473633,0.7104647755622864,0.01,0.0,0.0,0.0,0.01,0.0,0.0,0.0,0.01,0.001093145227059722,0.013718849048018456,-0.05052096024155617,0.01,0.0,0.0,0.0,0.01,0.0,0.0,0.0,0.01,-0.30564569239951667,-9.778284906259179,-0.4736046598674729,0.01,0.0,0.0,0.0,0.01,0.0,0.0,0.0,0.01
1700026237.7196834,26824,1700026237,696930304,gx5_link,0.6757208108901978,0.12731534242630005,0.14958064258098602,0.7105053663253784,0.01,0.0,0.0,0.0,0.01,0.0,0.0,0.0,0.01,-0.0030301581136882305,0.015076977200806141,-0.055184293538331985,0.01,0.0,0.0,0.0,0.01,0.0,0.0,0.0,0.01,-0.26829246035991233,-9.830138427615164,-0.4853944663824513,0.01,0.0,0.0,0.0,0.01,0.0,0.0,0.0,0.01
1700026237.7335598,26825,1700026237,706955264,gx5_link,0.6756497621536255,0.1275162398815155,0.14939863979816437,0.7105752229690552,0.01,0.0,0.0,0.0,0.01,0.0,0.0,0.0,0.01,-0.00702415406703949,0.008953232318162918,-0.05710237845778465,0.01,0.0,0.0,0.0,0.01,0.0,0.0,0.0,0.01,-0.22509802801143378,-9.840938054049014,-0.5545560827508569,0.01,0.0,0.0,0.0,0.01,0.0,0.0,0.0,0.01
1700026237.7357063,26826,1700026237,716971008,gx5_link,0.6755749583244324,0.12766163051128387,0.1492038518190384,0.7106612324714661,0.01,0.0,0.0,0.0,0.01,0.0,0.0,0.0,0.01,-0.010025186464190483,-0.0003745321882888675,-0.05148724466562271,0.01,0.0,0.0,0.0,0.01,0.0,0.0,0.0,0.01,-0.19519019834063947,-9.876072495794295,-0.593284420802258,0.01,0.0,0.0,0.0,0.01,0.0,0.0,0.0,0.01
